workerid,trial,story,condition,rt,world,activity,Qtype,rating,experiment,eligible
2400,1,17_airplane,before,131267,ordinary,,habitual,100,exclamation,True
2400,2,19_exhibit,after,102207,wonky,habitual,habitual,100,exclamation,True
2400,3,24_laundry,after,95819,wonky,non-habitual,habitual,49.85,exclamation,True
2400,4,21_pizza,after,63281,ordinary,non-habitual,habitual,100,exclamation,True
2400,5,13_bus,before,52005,wonky,,habitual,100,exclamation,True
2400,6,14_clothes,after,44623,ordinary,habitual,habitual,98.05,exclamation,True
2400,1,17_airplane,before,131267,ordinary,,non-habitual,100,exclamation,True
2400,2,19_exhibit,after,102207,wonky,habitual,non-habitual,0,exclamation,True
2400,3,24_laundry,after,95819,wonky,non-habitual,non-habitual,50.87,exclamation,True
2400,4,21_pizza,after,63281,ordinary,non-habitual,non-habitual,100,exclamation,True
2400,5,13_bus,before,52005,wonky,,non-habitual,50.42,exclamation,True
2400,6,14_clothes,after,44623,ordinary,habitual,non-habitual,100,exclamation,True
2400,1,17_airplane,before,131267,ordinary,,script,100,exclamation,True
2400,2,19_exhibit,after,102207,wonky,habitual,script,100,exclamation,True
2400,3,24_laundry,after,95819,wonky,non-habitual,script,51.16,exclamation,True
2400,4,21_pizza,after,63281,ordinary,non-habitual,script,99.09,exclamation,True
2400,5,13_bus,before,52005,wonky,,script,100,exclamation,True
2400,6,14_clothes,after,44623,ordinary,habitual,script,100,exclamation,True
2400,1,17_airplane,before,131267,ordinary,,interaction,49.53,exclamation,True
2400,2,19_exhibit,after,102207,wonky,habitual,interaction,50.27,exclamation,True
2400,3,24_laundry,after,95819,wonky,non-habitual,interaction,50.42,exclamation,True
2400,4,21_pizza,after,63281,ordinary,non-habitual,interaction,99.23,exclamation,True
2400,5,13_bus,before,52005,wonky,,interaction,49.83,exclamation,True
2400,6,14_clothes,after,44623,ordinary,habitual,interaction,49.53,exclamation,True
2401,1,16_baking,after,34987,ordinary,habitual,habitual,98.92,exclamation,True
2401,2,6_swimming,before,51484,wonky,,habitual,99.72,exclamation,True
2401,3,18_hair,before,32569,ordinary,,habitual,99.38,exclamation,True
2401,4,3_feed_dog,after,31414,ordinary,non-habitual,habitual,60.43,exclamation,True
2401,5,10_shampoo,after,38909,wonky,non-habitual,habitual,99.01,exclamation,True
2401,6,21_pizza,after,29008,wonky,habitual,habitual,99.16,exclamation,True
2401,1,16_baking,after,34987,ordinary,habitual,non-habitual,81.97,exclamation,True
2401,2,6_swimming,before,51484,wonky,,non-habitual,0.3,exclamation,True
2401,3,18_hair,before,32569,ordinary,,non-habitual,66.62,exclamation,True
2401,4,3_feed_dog,after,31414,ordinary,non-habitual,non-habitual,99.26,exclamation,True
2401,5,10_shampoo,after,38909,wonky,non-habitual,non-habitual,70.11,exclamation,True
2401,6,21_pizza,after,29008,wonky,habitual,non-habitual,52.53,exclamation,True
2401,1,16_baking,after,34987,ordinary,habitual,script,82.08,exclamation,True
2401,2,6_swimming,before,51484,wonky,,script,87.12,exclamation,True
2401,3,18_hair,before,32569,ordinary,,script,92.39,exclamation,True
2401,4,3_feed_dog,after,31414,ordinary,non-habitual,script,99.15,exclamation,True
2401,5,10_shampoo,after,38909,wonky,non-habitual,script,88.23,exclamation,True
2401,6,21_pizza,after,29008,wonky,habitual,script,85.45,exclamation,True
2401,1,16_baking,after,34987,ordinary,habitual,interaction,99.38,exclamation,True
2401,2,6_swimming,before,51484,wonky,,interaction,49.44,exclamation,True
2401,3,18_hair,before,32569,ordinary,,interaction,51.38,exclamation,True
2401,4,3_feed_dog,after,31414,ordinary,non-habitual,interaction,98.92,exclamation,True
2401,5,10_shampoo,after,38909,wonky,non-habitual,interaction,81.04,exclamation,True
2401,6,21_pizza,after,29008,wonky,habitual,interaction,68.57,exclamation,True
2402,1,15_pasta,after,60024,ordinary,habitual,habitual,98.58,exclamation,True
2402,2,20_drive,before,37492,wonky,,habitual,49.14,exclamation,True
2402,3,11_skydiving,after,40923,ordinary,non-habitual,habitual,98.77,exclamation,True
2402,4,21_pizza,after,35936,wonky,habitual,habitual,49.33,exclamation,True
2402,5,19_exhibit,before,28215,ordinary,,habitual,50.83,exclamation,True
2402,6,14_clothes,after,33186,wonky,non-habitual,habitual,50.46,exclamation,True
2402,1,15_pasta,after,60024,ordinary,habitual,non-habitual,48.58,exclamation,True
2402,2,20_drive,before,37492,wonky,,non-habitual,50.46,exclamation,True
2402,3,11_skydiving,after,40923,ordinary,non-habitual,non-habitual,49.71,exclamation,True
2402,4,21_pizza,after,35936,wonky,habitual,non-habitual,48.95,exclamation,True
2402,5,19_exhibit,before,28215,ordinary,,non-habitual,50.08,exclamation,True
2402,6,14_clothes,after,33186,wonky,non-habitual,non-habitual,51.4,exclamation,True
2402,1,15_pasta,after,60024,ordinary,habitual,script,49.71,exclamation,True
2402,2,20_drive,before,37492,wonky,,script,97.07,exclamation,True
2402,3,11_skydiving,after,40923,ordinary,non-habitual,script,52.34,exclamation,True
2402,4,21_pizza,after,35936,wonky,habitual,script,51.4,exclamation,True
2402,5,19_exhibit,before,28215,ordinary,,script,50.65,exclamation,True
2402,6,14_clothes,after,33186,wonky,non-habitual,script,52.34,exclamation,True
2402,1,15_pasta,after,60024,ordinary,habitual,interaction,47.83,exclamation,True
2402,2,20_drive,before,37492,wonky,,interaction,49.71,exclamation,True
2402,3,11_skydiving,after,40923,ordinary,non-habitual,interaction,51.21,exclamation,True
2402,4,21_pizza,after,35936,wonky,habitual,interaction,49.71,exclamation,True
2402,5,19_exhibit,before,28215,ordinary,,interaction,49.71,exclamation,True
2402,6,14_clothes,after,33186,wonky,non-habitual,interaction,51.96,exclamation,True
2403,1,8_work,after,4389,wonky,non-habitual,habitual,44.75,ohyeah,True
2403,2,19_exhibit,after,4781,ordinary,habitual,habitual,49.8,ohyeah,True
2403,3,3_feed_dog,after,4550,wonky,habitual,habitual,69.83,ohyeah,True
2403,4,1_grocery,before,8120,wonky,,habitual,93.77,ohyeah,True
2403,5,21_pizza,before,4479,ordinary,,habitual,82.7,ohyeah,True
2403,6,16_baking,after,4254,ordinary,non-habitual,habitual,79.6,ohyeah,True
2403,1,8_work,after,4389,wonky,non-habitual,non-habitual,63.8,ohyeah,True
2403,2,19_exhibit,after,4781,ordinary,habitual,non-habitual,44.26,ohyeah,True
2403,3,3_feed_dog,after,4550,wonky,habitual,non-habitual,45.07,ohyeah,True
2403,4,1_grocery,before,8120,wonky,,non-habitual,54.36,ohyeah,True
2403,5,21_pizza,before,4479,ordinary,,non-habitual,78.95,ohyeah,True
2403,6,16_baking,after,4254,ordinary,non-habitual,non-habitual,70.97,ohyeah,True
2403,1,8_work,after,4389,wonky,non-habitual,script,53.87,ohyeah,True
2403,2,19_exhibit,after,4781,ordinary,habitual,script,69.5,ohyeah,True
2403,3,3_feed_dog,after,4550,wonky,habitual,script,45.89,ohyeah,True
2403,4,1_grocery,before,8120,wonky,,script,59.08,ohyeah,True
2403,5,21_pizza,before,4479,ordinary,,script,60.06,ohyeah,True
2403,6,16_baking,after,4254,ordinary,non-habitual,script,34.98,ohyeah,True
2403,1,8_work,after,4389,wonky,non-habitual,interaction,64.94,ohyeah,True
2403,2,19_exhibit,after,4781,ordinary,habitual,interaction,48.33,ohyeah,True
2403,3,3_feed_dog,after,4550,wonky,habitual,interaction,65.76,ohyeah,True
2403,4,1_grocery,before,8120,wonky,,interaction,71.78,ohyeah,True
2403,5,21_pizza,before,4479,ordinary,,interaction,70.48,ohyeah,True
2403,6,16_baking,after,4254,ordinary,non-habitual,interaction,62.01,ohyeah,True
2404,1,13_bus,before,13827,wonky,,habitual,58.06,exclamation,True
2404,2,6_swimming,after,15167,ordinary,non-habitual,habitual,36.23,exclamation,True
2404,3,7_train,before,42546,ordinary,,habitual,44.48,exclamation,True
2404,4,22_dishes,after,9426,wonky,habitual,habitual,42.1,exclamation,True
2404,5,10_shampoo,after,15672,ordinary,habitual,habitual,38.22,exclamation,True
2404,6,11_skydiving,after,69080,wonky,non-habitual,habitual,45.51,exclamation,True
2404,1,13_bus,before,13827,wonky,,non-habitual,26.62,exclamation,True
2404,2,6_swimming,after,15167,ordinary,non-habitual,non-habitual,41.75,exclamation,True
2404,3,7_train,before,42546,ordinary,,non-habitual,44.25,exclamation,True
2404,4,22_dishes,after,9426,wonky,habitual,non-habitual,47.51,exclamation,True
2404,5,10_shampoo,after,15672,ordinary,habitual,non-habitual,38.22,exclamation,True
2404,6,11_skydiving,after,69080,wonky,non-habitual,non-habitual,58.55,exclamation,True
2404,1,13_bus,before,13827,wonky,,script,57.01,exclamation,True
2404,2,6_swimming,after,15167,ordinary,non-habitual,script,53.85,exclamation,True
2404,3,7_train,before,42546,ordinary,,script,44.25,exclamation,True
2404,4,22_dishes,after,9426,wonky,habitual,script,43.86,exclamation,True
2404,5,10_shampoo,after,15672,ordinary,habitual,script,46.45,exclamation,True
2404,6,11_skydiving,after,69080,wonky,non-habitual,script,45.51,exclamation,True
2404,1,13_bus,before,13827,wonky,,interaction,29.29,exclamation,True
2404,2,6_swimming,after,15167,ordinary,non-habitual,interaction,30.12,exclamation,True
2404,3,7_train,before,42546,ordinary,,interaction,56.43,exclamation,True
2404,4,22_dishes,after,9426,wonky,habitual,interaction,39.52,exclamation,True
2404,5,10_shampoo,after,15672,ordinary,habitual,interaction,39.4,exclamation,True
2404,6,11_skydiving,after,69080,wonky,non-habitual,interaction,44.8,exclamation,True
2405,1,5_fueling,before,41693,wonky,,habitual,32.81,period,True
2405,2,20_drive,before,35325,ordinary,,habitual,79.85,period,True
2405,3,3_feed_dog,after,47472,ordinary,habitual,habitual,89.09,period,True
2405,4,14_clothes,after,34104,ordinary,non-habitual,habitual,81.98,period,True
2405,5,10_shampoo,after,51390,wonky,non-habitual,habitual,10.66,period,True
2405,6,1_grocery,after,37986,wonky,habitual,habitual,20.13,period,True
2405,1,5_fueling,before,41693,wonky,,non-habitual,49.76,period,True
2405,2,20_drive,before,35325,ordinary,,non-habitual,49.16,period,True
2405,3,3_feed_dog,after,47472,ordinary,habitual,non-habitual,23.33,period,True
2405,4,14_clothes,after,34104,ordinary,non-habitual,non-habitual,87.79,period,True
2405,5,10_shampoo,after,51390,wonky,non-habitual,non-habitual,81.15,period,True
2405,6,1_grocery,after,37986,wonky,habitual,non-habitual,61.96,period,True
2405,1,5_fueling,before,41693,wonky,,script,76.53,period,True
2405,2,20_drive,before,35325,ordinary,,script,80.09,period,True
2405,3,3_feed_dog,after,47472,ordinary,habitual,script,99.52,period,True
2405,4,14_clothes,after,34104,ordinary,non-habitual,script,88.62,period,True
2405,5,10_shampoo,after,51390,wonky,non-habitual,script,81.86,period,True
2405,6,1_grocery,after,37986,wonky,habitual,script,61.25,period,True
2405,1,5_fueling,before,41693,wonky,,interaction,49.4,period,True
2405,2,20_drive,before,35325,ordinary,,interaction,50.59,period,True
2405,3,3_feed_dog,after,47472,ordinary,habitual,interaction,84.47,period,True
2405,4,14_clothes,after,34104,ordinary,non-habitual,interaction,32.22,period,True
2405,5,10_shampoo,after,51390,wonky,non-habitual,interaction,81.15,period,True
2405,6,1_grocery,after,37986,wonky,habitual,interaction,72.62,period,True
2406,1,5_fueling,after,71573,wonky,habitual,habitual,99.33,ohyeah,True
2406,2,6_swimming,before,43684,wonky,,habitual,86.28,ohyeah,True
2406,3,8_work,before,79251,ordinary,,habitual,100,ohyeah,True
2406,4,22_dishes,after,40889,ordinary,non-habitual,habitual,98.74,ohyeah,True
2406,5,17_airplane,after,48154,ordinary,habitual,habitual,100,ohyeah,True
2406,6,7_train,after,67382,wonky,non-habitual,habitual,100,ohyeah,True
2406,1,5_fueling,after,71573,wonky,habitual,non-habitual,0.97,ohyeah,True
2406,2,6_swimming,before,43684,wonky,,non-habitual,86.99,ohyeah,True
2406,3,8_work,before,79251,ordinary,,non-habitual,31.64,ohyeah,True
2406,4,22_dishes,after,40889,ordinary,non-habitual,non-habitual,91.81,ohyeah,True
2406,5,17_airplane,after,48154,ordinary,habitual,non-habitual,82.64,ohyeah,True
2406,6,7_train,after,67382,wonky,non-habitual,non-habitual,82.52,ohyeah,True
2406,1,5_fueling,after,71573,wonky,habitual,script,79.7,ohyeah,True
2406,2,6_swimming,before,43684,wonky,,script,84.99,ohyeah,True
2406,3,8_work,before,79251,ordinary,,script,97.8,ohyeah,True
2406,4,22_dishes,after,40889,ordinary,non-habitual,script,99.68,ohyeah,True
2406,5,17_airplane,after,48154,ordinary,habitual,script,71.36,ohyeah,True
2406,6,7_train,after,67382,wonky,non-habitual,script,98.86,ohyeah,True
2406,1,5_fueling,after,71573,wonky,habitual,interaction,49.74,ohyeah,True
2406,2,6_swimming,before,43684,wonky,,interaction,49.74,ohyeah,True
2406,3,8_work,before,79251,ordinary,,interaction,88.05,ohyeah,True
2406,4,22_dishes,after,40889,ordinary,non-habitual,interaction,98.39,ohyeah,True
2406,5,17_airplane,after,48154,ordinary,habitual,interaction,30.7,ohyeah,True
2406,6,7_train,after,67382,wonky,non-habitual,interaction,17.78,ohyeah,True
2407,1,7_train,before,14805,ordinary,,habitual,61.89,period,True
2407,2,4_subway,after,7545,wonky,habitual,habitual,62.4,period,True
2407,3,19_exhibit,after,12524,ordinary,habitual,habitual,33.82,period,True
2407,4,15_pasta,after,10439,wonky,non-habitual,habitual,90.07,period,True
2407,5,8_work,before,12182,wonky,,habitual,93.96,period,True
2407,6,13_bus,after,16141,ordinary,non-habitual,habitual,88.74,period,True
2407,1,7_train,before,14805,ordinary,,non-habitual,46.63,period,True
2407,2,4_subway,after,7545,wonky,habitual,non-habitual,56.77,period,True
2407,3,19_exhibit,after,12524,ordinary,habitual,non-habitual,49.49,period,True
2407,4,15_pasta,after,10439,wonky,non-habitual,non-habitual,59.02,period,True
2407,5,8_work,before,12182,wonky,,non-habitual,30.95,period,True
2407,6,13_bus,after,16141,ordinary,non-habitual,non-habitual,74.6,period,True
2407,1,7_train,before,14805,ordinary,,script,65.07,period,True
2407,2,4_subway,after,7545,wonky,habitual,script,45.29,period,True
2407,3,19_exhibit,after,12524,ordinary,habitual,script,63.12,period,True
2407,4,15_pasta,after,10439,wonky,non-habitual,script,52.26,period,True
2407,5,8_work,before,12182,wonky,,script,64.97,period,True
2407,6,13_bus,after,16141,ordinary,non-habitual,script,64.66,period,True
2407,1,7_train,before,14805,ordinary,,interaction,39.45,period,True
2407,2,4_subway,after,7545,wonky,habitual,interaction,53.39,period,True
2407,3,19_exhibit,after,12524,ordinary,habitual,interaction,42.02,period,True
2407,4,15_pasta,after,10439,wonky,non-habitual,interaction,60.56,period,True
2407,5,8_work,before,12182,wonky,,interaction,62.61,period,True
2407,6,13_bus,after,16141,ordinary,non-habitual,interaction,42.32,period,True
2408,1,1_grocery,before,57105,ordinary,,habitual,100,ohyeah,True
2408,2,24_laundry,after,43857,ordinary,habitual,habitual,22.04,ohyeah,True
2408,3,4_subway,after,53898,ordinary,non-habitual,habitual,99.34,ohyeah,True
2408,4,17_airplane,after,50123,wonky,habitual,habitual,27.91,ohyeah,True
2408,5,5_fueling,after,53149,wonky,non-habitual,habitual,99.23,ohyeah,True
2408,6,8_work,before,62000,wonky,,habitual,86.71,ohyeah,True
2408,1,1_grocery,before,57105,ordinary,,non-habitual,31.34,ohyeah,True
2408,2,24_laundry,after,43857,ordinary,habitual,non-habitual,0.33,ohyeah,True
2408,3,4_subway,after,53898,ordinary,non-habitual,non-habitual,9.08,ohyeah,True
2408,4,17_airplane,after,50123,wonky,habitual,non-habitual,1.55,ohyeah,True
2408,5,5_fueling,after,53149,wonky,non-habitual,non-habitual,49.17,ohyeah,True
2408,6,8_work,before,62000,wonky,,non-habitual,98.78,ohyeah,True
2408,1,1_grocery,before,57105,ordinary,,script,80.18,ohyeah,True
2408,2,24_laundry,after,43857,ordinary,habitual,script,36.33,ohyeah,True
2408,3,4_subway,after,53898,ordinary,non-habitual,script,55.71,ohyeah,True
2408,4,17_airplane,after,50123,wonky,habitual,script,48.84,ohyeah,True
2408,5,5_fueling,after,53149,wonky,non-habitual,script,49.28,ohyeah,True
2408,6,8_work,before,62000,wonky,,script,96.46,ohyeah,True
2408,1,1_grocery,before,57105,ordinary,,interaction,42.31,ohyeah,True
2408,2,24_laundry,after,43857,ordinary,habitual,interaction,63.46,ohyeah,True
2408,3,4_subway,after,53898,ordinary,non-habitual,interaction,33.45,ohyeah,True
2408,4,17_airplane,after,50123,wonky,habitual,interaction,49.39,ohyeah,True
2408,5,5_fueling,after,53149,wonky,non-habitual,interaction,57.37,ohyeah,True
2408,6,8_work,before,62000,wonky,,interaction,93.47,ohyeah,True
2409,1,14_clothes,before,40388,wonky,,habitual,11.75,exclamation,True
2409,2,11_skydiving,after,54637,wonky,habitual,habitual,49.57,exclamation,True
2409,3,3_feed_dog,before,42657,ordinary,,habitual,85.61,exclamation,True
2409,4,18_hair,after,37175,wonky,non-habitual,habitual,4.47,exclamation,True
2409,5,5_fueling,after,61575,ordinary,non-habitual,habitual,79.91,exclamation,True
2409,6,7_train,after,41259,ordinary,habitual,habitual,90.65,exclamation,True
2409,1,14_clothes,before,40388,wonky,,non-habitual,1.48,exclamation,True
2409,2,11_skydiving,after,54637,wonky,habitual,non-habitual,13.34,exclamation,True
2409,3,3_feed_dog,before,42657,ordinary,,non-habitual,50.03,exclamation,True
2409,4,18_hair,after,37175,wonky,non-habitual,non-habitual,49.47,exclamation,True
2409,5,5_fueling,after,61575,ordinary,non-habitual,non-habitual,19.78,exclamation,True
2409,6,7_train,after,41259,ordinary,habitual,non-habitual,50.69,exclamation,True
2409,1,14_clothes,before,40388,wonky,,script,75.9,exclamation,True
2409,2,11_skydiving,after,54637,wonky,habitual,script,66.19,exclamation,True
2409,3,3_feed_dog,before,42657,ordinary,,script,98.3,exclamation,True
2409,4,18_hair,after,37175,wonky,non-habitual,script,91.49,exclamation,True
2409,5,5_fueling,after,61575,ordinary,non-habitual,script,86.45,exclamation,True
2409,6,7_train,after,41259,ordinary,habitual,script,73.65,exclamation,True
2409,1,14_clothes,before,40388,wonky,,interaction,43.31,exclamation,True
2409,2,11_skydiving,after,54637,wonky,habitual,interaction,77.48,exclamation,True
2409,3,3_feed_dog,before,42657,ordinary,,interaction,99.15,exclamation,True
2409,4,18_hair,after,37175,wonky,non-habitual,interaction,88.5,exclamation,True
2409,5,5_fueling,after,61575,ordinary,non-habitual,interaction,74.59,exclamation,True
2409,6,7_train,after,41259,ordinary,habitual,interaction,42.19,exclamation,True
2410,1,11_skydiving,after,54165,ordinary,habitual,habitual,96.91,exclamation,True
2410,2,14_clothes,before,65680,ordinary,,habitual,86.56,exclamation,True
2410,3,19_exhibit,after,54798,wonky,habitual,habitual,98.07,exclamation,True
2410,4,17_airplane,before,52811,wonky,,habitual,6.06,exclamation,True
2410,5,16_baking,after,48116,ordinary,non-habitual,habitual,98.15,exclamation,True
2410,6,5_fueling,after,60077,wonky,non-habitual,habitual,98.65,exclamation,True
2410,1,11_skydiving,after,54165,ordinary,habitual,non-habitual,50.7,exclamation,True
2410,2,14_clothes,before,65680,ordinary,,non-habitual,69.17,exclamation,True
2410,3,19_exhibit,after,54798,wonky,habitual,non-habitual,23.29,exclamation,True
2410,4,17_airplane,before,52811,wonky,,non-habitual,88.88,exclamation,True
2410,5,16_baking,after,48116,ordinary,non-habitual,non-habitual,12.69,exclamation,True
2410,6,5_fueling,after,60077,wonky,non-habitual,non-habitual,16.91,exclamation,True
2410,1,11_skydiving,after,54165,ordinary,habitual,script,17.82,exclamation,True
2410,2,14_clothes,before,65680,ordinary,,script,78.28,exclamation,True
2410,3,19_exhibit,after,54798,wonky,habitual,script,88.22,exclamation,True
2410,4,17_airplane,before,52811,wonky,,script,89.04,exclamation,True
2410,5,16_baking,after,48116,ordinary,non-habitual,script,74.22,exclamation,True
2410,6,5_fueling,after,60077,wonky,non-habitual,script,90.62,exclamation,True
2410,1,11_skydiving,after,54165,ordinary,habitual,interaction,15.09,exclamation,True
2410,2,14_clothes,before,65680,ordinary,,interaction,15.75,exclamation,True
2410,3,19_exhibit,after,54798,wonky,habitual,interaction,52.03,exclamation,True
2410,4,17_airplane,before,52811,wonky,,interaction,67.68,exclamation,True
2410,5,16_baking,after,48116,ordinary,non-habitual,interaction,81.01,exclamation,True
2410,6,5_fueling,after,60077,wonky,non-habitual,interaction,50.54,exclamation,True
2411,1,23_library,after,27948,wonky,non-habitual,habitual,20.84,exclamation,True
2411,2,17_airplane,before,26153,wonky,,habitual,21.68,exclamation,True
2411,3,10_shampoo,after,22344,ordinary,habitual,habitual,90.72,exclamation,True
2411,4,7_train,after,20023,wonky,habitual,habitual,79.88,exclamation,True
2411,5,4_subway,after,30474,ordinary,non-habitual,habitual,93.97,exclamation,True
2411,6,20_drive,before,21738,ordinary,,habitual,83.85,exclamation,True
2411,1,23_library,after,27948,wonky,non-habitual,non-habitual,3.73,exclamation,True
2411,2,17_airplane,before,26153,wonky,,non-habitual,49.76,exclamation,True
2411,3,10_shampoo,after,22344,ordinary,habitual,non-habitual,74.21,exclamation,True
2411,4,7_train,after,20023,wonky,habitual,non-habitual,70.24,exclamation,True
2411,5,4_subway,after,30474,ordinary,non-habitual,non-habitual,6.74,exclamation,True
2411,6,20_drive,before,21738,ordinary,,non-habitual,3.97,exclamation,True
2411,1,23_library,after,27948,wonky,non-habitual,script,71.56,exclamation,True
2411,2,17_airplane,before,26153,wonky,,script,75.3,exclamation,True
2411,3,10_shampoo,after,22344,ordinary,habitual,script,74.94,exclamation,True
2411,4,7_train,after,20023,wonky,habitual,script,87.83,exclamation,True
2411,5,4_subway,after,30474,ordinary,non-habitual,script,94.21,exclamation,True
2411,6,20_drive,before,21738,ordinary,,script,92.17,exclamation,True
2411,1,23_library,after,27948,wonky,non-habitual,interaction,69.88,exclamation,True
2411,2,17_airplane,before,26153,wonky,,interaction,50.48,exclamation,True
2411,3,10_shampoo,after,22344,ordinary,habitual,interaction,48.67,exclamation,True
2411,4,7_train,after,20023,wonky,habitual,interaction,66.5,exclamation,True
2411,5,4_subway,after,30474,ordinary,non-habitual,interaction,65.9,exclamation,True
2411,6,20_drive,before,21738,ordinary,,interaction,54.58,exclamation,True
2412,1,21_pizza,before,36217,wonky,,habitual,99.19,exclamation,True
2412,2,9_doctor,after,57556,ordinary,habitual,habitual,23.53,exclamation,True
2412,3,16_baking,after,62996,wonky,non-habitual,habitual,48.24,exclamation,True
2412,4,15_pasta,before,40395,ordinary,,habitual,73.84,exclamation,True
2412,5,4_subway,after,34659,ordinary,non-habitual,habitual,99.57,exclamation,True
2412,6,2_restaurant,after,26770,wonky,habitual,habitual,99.95,exclamation,True
2412,1,21_pizza,before,36217,wonky,,non-habitual,49.5,exclamation,True
2412,2,9_doctor,after,57556,ordinary,habitual,non-habitual,25.8,exclamation,True
2412,3,16_baking,after,62996,wonky,non-habitual,non-habitual,26.43,exclamation,True
2412,4,15_pasta,before,40395,ordinary,,non-habitual,9.91,exclamation,True
2412,5,4_subway,after,34659,ordinary,non-habitual,non-habitual,6.5,exclamation,True
2412,6,2_restaurant,after,26770,wonky,habitual,non-habitual,79.01,exclamation,True
2412,1,21_pizza,before,36217,wonky,,script,73.09,exclamation,True
2412,2,9_doctor,after,57556,ordinary,habitual,script,23.28,exclamation,True
2412,3,16_baking,after,62996,wonky,non-habitual,script,48.5,exclamation,True
2412,4,15_pasta,before,40395,ordinary,,script,49.13,exclamation,True
2412,5,4_subway,after,34659,ordinary,non-habitual,script,87.84,exclamation,True
2412,6,2_restaurant,after,26770,wonky,habitual,script,99.69,exclamation,True
2412,1,21_pizza,before,36217,wonky,,interaction,47.99,exclamation,True
2412,2,9_doctor,after,57556,ordinary,habitual,interaction,48.87,exclamation,True
2412,3,16_baking,after,62996,wonky,non-habitual,interaction,75.48,exclamation,True
2412,4,15_pasta,before,40395,ordinary,,interaction,72.96,exclamation,True
2412,5,4_subway,after,34659,ordinary,non-habitual,interaction,61.86,exclamation,True
2412,6,2_restaurant,after,26770,wonky,habitual,interaction,49.76,exclamation,True
2413,1,6_swimming,after,50059,wonky,non-habitual,habitual,74.85,ohyeah,False
2413,2,12_letter,after,58620,ordinary,habitual,habitual,49.4,ohyeah,False
2413,3,22_dishes,after,43878,wonky,habitual,habitual,50.05,ohyeah,False
2413,4,20_drive,before,38311,ordinary,,habitual,99.4,ohyeah,False
2413,5,10_shampoo,after,66558,ordinary,non-habitual,habitual,99.81,ohyeah,False
2413,6,8_work,before,54205,wonky,,habitual,48.92,ohyeah,False
2413,1,6_swimming,after,50059,wonky,non-habitual,non-habitual,75.66,ohyeah,False
2413,2,12_letter,after,58620,ordinary,habitual,non-habitual,49.48,ohyeah,False
2413,3,22_dishes,after,43878,wonky,habitual,non-habitual,78.75,ohyeah,False
2413,4,20_drive,before,38311,ordinary,,non-habitual,99.32,ohyeah,False
2413,5,10_shampoo,after,66558,ordinary,non-habitual,non-habitual,99.89,ohyeah,False
2413,6,8_work,before,54205,wonky,,non-habitual,1.27,ohyeah,False
2413,1,6_swimming,after,50059,wonky,non-habitual,script,100,ohyeah,False
2413,2,12_letter,after,58620,ordinary,habitual,script,99.24,ohyeah,False
2413,3,22_dishes,after,43878,wonky,habitual,script,99.57,ohyeah,False
2413,4,20_drive,before,38311,ordinary,,script,99.24,ohyeah,False
2413,5,10_shampoo,after,66558,ordinary,non-habitual,script,99.48,ohyeah,False
2413,6,8_work,before,54205,wonky,,script,99.81,ohyeah,False
2413,1,6_swimming,after,50059,wonky,non-habitual,interaction,74.93,ohyeah,False
2413,2,12_letter,after,58620,ordinary,habitual,interaction,48.83,ohyeah,False
2413,3,22_dishes,after,43878,wonky,habitual,interaction,80.05,ohyeah,False
2413,4,20_drive,before,38311,ordinary,,interaction,77.45,ohyeah,False
2413,5,10_shampoo,after,66558,ordinary,non-habitual,interaction,99.4,ohyeah,False
2413,6,8_work,before,54205,wonky,,interaction,99.08,ohyeah,False
2414,1,7_train,after,54075,ordinary,habitual,habitual,99.65,exclamation,True
2414,2,14_clothes,after,31530,ordinary,non-habitual,habitual,99.73,exclamation,True
2414,3,23_library,after,27478,wonky,habitual,habitual,98.92,exclamation,True
2414,4,22_dishes,before,26948,wonky,,habitual,49.48,exclamation,True
2414,5,15_pasta,before,58131,ordinary,,habitual,1.11,exclamation,True
2414,6,16_baking,after,29065,wonky,non-habitual,habitual,98.1,exclamation,True
2414,1,7_train,after,54075,ordinary,habitual,non-habitual,45.18,exclamation,True
2414,2,14_clothes,after,31530,ordinary,non-habitual,non-habitual,63.14,exclamation,True
2414,3,23_library,after,27478,wonky,habitual,non-habitual,48.92,exclamation,True
2414,4,22_dishes,before,26948,wonky,,non-habitual,35.18,exclamation,True
2414,5,15_pasta,before,58131,ordinary,,non-habitual,17.45,exclamation,True
2414,6,16_baking,after,29065,wonky,non-habitual,non-habitual,49.16,exclamation,True
2414,1,7_train,after,54075,ordinary,habitual,script,95.18,exclamation,True
2414,2,14_clothes,after,31530,ordinary,non-habitual,script,86.96,exclamation,True
2414,3,23_library,after,27478,wonky,habitual,script,98.75,exclamation,True
2414,4,22_dishes,before,26948,wonky,,script,88.92,exclamation,True
2414,5,15_pasta,before,58131,ordinary,,script,50.95,exclamation,True
2414,6,16_baking,after,29065,wonky,non-habitual,script,49.81,exclamation,True
2414,1,7_train,after,54075,ordinary,habitual,interaction,7.21,exclamation,True
2414,2,14_clothes,after,31530,ordinary,non-habitual,interaction,33.14,exclamation,True
2414,3,23_library,after,27478,wonky,habitual,interaction,22.9,exclamation,True
2414,4,22_dishes,before,26948,wonky,,interaction,18.75,exclamation,True
2414,5,15_pasta,before,58131,ordinary,,interaction,83.71,exclamation,True
2414,6,16_baking,after,29065,wonky,non-habitual,interaction,87.45,exclamation,True
2415,1,23_library,after,33670,ordinary,habitual,habitual,90.34,ohyeah,True
2415,2,22_dishes,before,27694,wonky,,habitual,48.91,ohyeah,True
2415,3,1_grocery,after,44219,wonky,habitual,habitual,37.01,ohyeah,True
2415,4,4_subway,after,23035,wonky,non-habitual,habitual,15.68,ohyeah,True
2415,5,6_swimming,after,20287,ordinary,non-habitual,habitual,86.34,ohyeah,True
2415,6,19_exhibit,before,13539,ordinary,,habitual,63.17,ohyeah,True
2415,1,23_library,after,33670,ordinary,habitual,non-habitual,53.93,ohyeah,True
2415,2,22_dishes,before,27694,wonky,,non-habitual,49.11,ohyeah,True
2415,3,1_grocery,after,44219,wonky,habitual,non-habitual,40.4,ohyeah,True
2415,4,4_subway,after,23035,wonky,non-habitual,non-habitual,49.22,ohyeah,True
2415,5,6_swimming,after,20287,ordinary,non-habitual,non-habitual,63.37,ohyeah,True
2415,6,19_exhibit,before,13539,ordinary,,non-habitual,41.52,ohyeah,True
2415,1,23_library,after,33670,ordinary,habitual,script,84.6,ohyeah,True
2415,2,22_dishes,before,27694,wonky,,script,52.6,ohyeah,True
2415,3,1_grocery,after,44219,wonky,habitual,script,62.34,ohyeah,True
2415,4,4_subway,after,23035,wonky,non-habitual,script,78.76,ohyeah,True
2415,5,6_swimming,after,20287,ordinary,non-habitual,script,73.73,ohyeah,True
2415,6,19_exhibit,before,13539,ordinary,,script,64.5,ohyeah,True
2415,1,23_library,after,33670,ordinary,habitual,interaction,80.5,ohyeah,True
2415,2,22_dishes,before,27694,wonky,,interaction,75.17,ohyeah,True
2415,3,1_grocery,after,44219,wonky,habitual,interaction,66.45,ohyeah,True
2415,4,4_subway,after,23035,wonky,non-habitual,interaction,57.93,ohyeah,True
2415,5,6_swimming,after,20287,ordinary,non-habitual,interaction,61.22,ohyeah,True
2415,6,19_exhibit,before,13539,ordinary,,interaction,66.34,ohyeah,True
2416,1,12_letter,after,71411,wonky,non-habitual,habitual,13.56,ohyeah,True
2416,2,5_fueling,after,36890,wonky,habitual,habitual,44.04,ohyeah,True
2416,3,14_clothes,after,39618,ordinary,habitual,habitual,49.53,ohyeah,True
2416,4,11_skydiving,before,72732,ordinary,,habitual,100,ohyeah,True
2416,5,20_drive,before,31071,wonky,,habitual,14.22,ohyeah,True
2416,6,22_dishes,after,47350,ordinary,non-habitual,habitual,100,ohyeah,True
2416,1,12_letter,after,71411,wonky,non-habitual,non-habitual,51.83,ohyeah,True
2416,2,5_fueling,after,36890,wonky,habitual,non-habitual,1.35,ohyeah,True
2416,3,14_clothes,after,39618,ordinary,habitual,non-habitual,50.29,ohyeah,True
2416,4,11_skydiving,before,72732,ordinary,,non-habitual,62.9,ohyeah,True
2416,5,20_drive,before,31071,wonky,,non-habitual,0,ohyeah,True
2416,6,22_dishes,after,47350,ordinary,non-habitual,non-habitual,100,ohyeah,True
2416,1,12_letter,after,71411,wonky,non-habitual,script,66.96,ohyeah,True
2416,2,5_fueling,after,36890,wonky,habitual,script,88.61,ohyeah,True
2416,3,14_clothes,after,39618,ordinary,habitual,script,80.56,ohyeah,True
2416,4,11_skydiving,before,72732,ordinary,,script,72.44,ohyeah,True
2416,5,20_drive,before,31071,wonky,,script,100,ohyeah,True
2416,6,22_dishes,after,47350,ordinary,non-habitual,script,78.26,ohyeah,True
2416,1,12_letter,after,71411,wonky,non-habitual,interaction,94.15,ohyeah,True
2416,2,5_fueling,after,36890,wonky,habitual,interaction,74.19,ohyeah,True
2416,3,14_clothes,after,39618,ordinary,habitual,interaction,29.13,ohyeah,True
2416,4,11_skydiving,before,72732,ordinary,,interaction,97.33,ohyeah,True
2416,5,20_drive,before,31071,wonky,,interaction,77.38,ohyeah,True
2416,6,22_dishes,after,47350,ordinary,non-habitual,interaction,100,ohyeah,True
2417,1,8_work,before,33587,ordinary,,habitual,75.24,exclamation,True
2417,2,6_swimming,before,26580,wonky,,habitual,78.88,exclamation,True
2417,3,15_pasta,after,30821,wonky,habitual,habitual,94.51,exclamation,True
2417,4,22_dishes,after,32923,wonky,non-habitual,habitual,89.46,exclamation,True
2417,5,17_airplane,after,31621,ordinary,habitual,habitual,92.98,exclamation,True
2417,6,7_train,after,25811,ordinary,non-habitual,habitual,49.39,exclamation,True
2417,1,8_work,before,33587,ordinary,,non-habitual,51.15,exclamation,True
2417,2,6_swimming,before,26580,wonky,,non-habitual,51.5,exclamation,True
2417,3,15_pasta,after,30821,wonky,habitual,non-habitual,25.77,exclamation,True
2417,4,22_dishes,after,32923,wonky,non-habitual,non-habitual,95.69,exclamation,True
2417,5,17_airplane,after,31621,ordinary,habitual,non-habitual,49.5,exclamation,True
2417,6,7_train,after,25811,ordinary,non-habitual,non-habitual,50.91,exclamation,True
2417,1,8_work,before,33587,ordinary,,script,77.47,exclamation,True
2417,2,6_swimming,before,26580,wonky,,script,92.28,exclamation,True
2417,3,15_pasta,after,30821,wonky,habitual,script,51.03,exclamation,True
2417,4,22_dishes,after,32923,wonky,non-habitual,script,77.82,exclamation,True
2417,5,17_airplane,after,31621,ordinary,habitual,script,50.56,exclamation,True
2417,6,7_train,after,25811,ordinary,non-habitual,script,98.27,exclamation,True
2417,1,8_work,before,33587,ordinary,,interaction,49.86,exclamation,True
2417,2,6_swimming,before,26580,wonky,,interaction,70.66,exclamation,True
2417,3,15_pasta,after,30821,wonky,habitual,interaction,95.92,exclamation,True
2417,4,22_dishes,after,32923,wonky,non-habitual,interaction,95.45,exclamation,True
2417,5,17_airplane,after,31621,ordinary,habitual,interaction,28.35,exclamation,True
2417,6,7_train,after,25811,ordinary,non-habitual,interaction,29.29,exclamation,True
2418,1,6_swimming,after,32852,wonky,habitual,habitual,22.59,ohyeah,True
2418,2,11_skydiving,after,33828,wonky,non-habitual,habitual,36.01,ohyeah,True
2418,3,1_grocery,after,24910,ordinary,habitual,habitual,68.3,ohyeah,True
2418,4,19_exhibit,before,19326,wonky,,habitual,52.03,ohyeah,True
2418,5,9_doctor,before,29678,ordinary,,habitual,93.15,ohyeah,True
2418,6,17_airplane,after,32718,ordinary,non-habitual,habitual,78.99,ohyeah,True
2418,1,6_swimming,after,32852,wonky,habitual,non-habitual,13.77,ohyeah,True
2418,2,11_skydiving,after,33828,wonky,non-habitual,non-habitual,9.92,ohyeah,True
2418,3,1_grocery,after,24910,ordinary,habitual,non-habitual,49.55,ohyeah,True
2418,4,19_exhibit,before,19326,wonky,,non-habitual,13.52,ohyeah,True
2418,5,9_doctor,before,29678,ordinary,,non-habitual,50.17,ohyeah,True
2418,6,17_airplane,after,32718,ordinary,non-habitual,non-habitual,39.73,ohyeah,True
2418,1,6_swimming,after,32852,wonky,habitual,script,87.06,ohyeah,True
2418,2,11_skydiving,after,33828,wonky,non-habitual,script,55.76,ohyeah,True
2418,3,1_grocery,after,24910,ordinary,habitual,script,50.79,ohyeah,True
2418,4,19_exhibit,before,19326,wonky,,script,77.74,ohyeah,True
2418,5,9_doctor,before,29678,ordinary,,script,15.26,ohyeah,True
2418,6,17_airplane,after,32718,ordinary,non-habitual,script,91.91,ohyeah,True
2418,1,6_swimming,after,32852,wonky,habitual,interaction,72.28,ohyeah,True
2418,2,11_skydiving,after,33828,wonky,non-habitual,interaction,92.9,ohyeah,True
2418,3,1_grocery,after,24910,ordinary,habitual,interaction,73.65,ohyeah,True
2418,4,19_exhibit,before,19326,wonky,,interaction,73.89,ohyeah,True
2418,5,9_doctor,before,29678,ordinary,,interaction,20.48,ohyeah,True
2418,6,17_airplane,after,32718,ordinary,non-habitual,interaction,23.09,ohyeah,True
2419,1,4_subway,before,35069,wonky,,habitual,17.61,exclamation,True
2419,2,7_train,before,28796,ordinary,,habitual,25.5,exclamation,True
2419,3,21_pizza,after,29865,wonky,habitual,habitual,99.16,exclamation,True
2419,4,13_bus,after,28804,wonky,non-habitual,habitual,5.58,exclamation,True
2419,5,10_shampoo,after,29609,ordinary,habitual,habitual,89.24,exclamation,True
2419,6,19_exhibit,after,26932,ordinary,non-habitual,habitual,97.94,exclamation,True
2419,1,4_subway,before,35069,wonky,,non-habitual,2.9,exclamation,True
2419,2,7_train,before,28796,ordinary,,non-habitual,49.65,exclamation,True
2419,3,21_pizza,after,29865,wonky,habitual,non-habitual,73.14,exclamation,True
2419,4,13_bus,after,28804,wonky,non-habitual,non-habitual,23.14,exclamation,True
2419,5,10_shampoo,after,29609,ordinary,habitual,non-habitual,68.1,exclamation,True
2419,6,19_exhibit,after,26932,ordinary,non-habitual,non-habitual,20.13,exclamation,True
2419,1,4_subway,before,35069,wonky,,script,97.61,exclamation,True
2419,2,7_train,before,28796,ordinary,,script,86.96,exclamation,True
2419,3,21_pizza,after,29865,wonky,habitual,script,73.79,exclamation,True
2419,4,13_bus,after,28804,wonky,non-habitual,script,90.95,exclamation,True
2419,5,10_shampoo,after,29609,ordinary,habitual,script,83.87,exclamation,True
2419,6,19_exhibit,after,26932,ordinary,non-habitual,script,28.59,exclamation,True
2419,1,4_subway,before,35069,wonky,,interaction,11.52,exclamation,True
2419,2,7_train,before,28796,ordinary,,interaction,9.97,exclamation,True
2419,3,21_pizza,after,29865,wonky,habitual,interaction,75.5,exclamation,True
2419,4,13_bus,after,28804,wonky,non-habitual,interaction,7.29,exclamation,True
2419,5,10_shampoo,after,29609,ordinary,habitual,interaction,49.97,exclamation,True
2419,6,19_exhibit,after,26932,ordinary,non-habitual,interaction,70.22,exclamation,True
2420,1,20_drive,after,30036,ordinary,habitual,habitual,100,exclamation,True
2420,2,4_subway,before,170462,wonky,,habitual,5.99,exclamation,True
2420,3,24_laundry,after,49174,wonky,habitual,habitual,49.23,exclamation,True
2420,4,1_grocery,after,23479,ordinary,non-habitual,habitual,99.57,exclamation,True
2420,5,3_feed_dog,after,48214,wonky,non-habitual,habitual,14.26,exclamation,True
2420,6,7_train,before,89294,ordinary,,habitual,86.22,exclamation,True
2420,1,20_drive,after,30036,ordinary,habitual,non-habitual,19.84,exclamation,True
2420,2,4_subway,before,170462,wonky,,non-habitual,16.97,exclamation,True
2420,3,24_laundry,after,49174,wonky,habitual,non-habitual,46.19,exclamation,True
2420,4,1_grocery,after,23479,ordinary,non-habitual,non-habitual,44.84,exclamation,True
2420,5,3_feed_dog,after,48214,wonky,non-habitual,non-habitual,35.38,exclamation,True
2420,6,7_train,before,89294,ordinary,,non-habitual,46.7,exclamation,True
2420,1,20_drive,after,30036,ordinary,habitual,script,90.61,exclamation,True
2420,2,4_subway,before,170462,wonky,,script,100,exclamation,True
2420,3,24_laundry,after,49174,wonky,habitual,script,17.3,exclamation,True
2420,4,1_grocery,after,23479,ordinary,non-habitual,script,49.06,exclamation,True
2420,5,3_feed_dog,after,48214,wonky,non-habitual,script,46.86,exclamation,True
2420,6,7_train,before,89294,ordinary,,script,86.39,exclamation,True
2420,1,20_drive,after,30036,ordinary,habitual,interaction,48.38,exclamation,True
2420,2,4_subway,before,170462,wonky,,interaction,28.62,exclamation,True
2420,3,24_laundry,after,49174,wonky,habitual,interaction,84.2,exclamation,True
2420,4,1_grocery,after,23479,ordinary,non-habitual,interaction,69.16,exclamation,True
2420,5,3_feed_dog,after,48214,wonky,non-habitual,interaction,74.06,exclamation,True
2420,6,7_train,before,89294,ordinary,,interaction,14.43,exclamation,True
2421,1,7_train,after,7197,wonky,non-habitual,habitual,51.18,exclamation,False
2421,2,9_doctor,after,5391,ordinary,non-habitual,habitual,50.47,exclamation,False
2421,3,3_feed_dog,before,8122,ordinary,,habitual,64.97,exclamation,False
2421,4,22_dishes,before,6307,wonky,,habitual,58.13,exclamation,False
2421,5,20_drive,after,5990,ordinary,habitual,habitual,64.74,exclamation,False
2421,6,21_pizza,after,5416,wonky,habitual,habitual,66.74,exclamation,False
2421,1,7_train,after,7197,wonky,non-habitual,non-habitual,58.49,exclamation,False
2421,2,9_doctor,after,5391,ordinary,non-habitual,non-habitual,61.67,exclamation,False
2421,3,3_feed_dog,before,8122,ordinary,,non-habitual,34.31,exclamation,False
2421,4,22_dishes,before,6307,wonky,,non-habitual,60.73,exclamation,False
2421,5,20_drive,after,5990,ordinary,habitual,non-habitual,43.63,exclamation,False
2421,6,21_pizza,after,5416,wonky,habitual,non-habitual,64.62,exclamation,False
2421,1,7_train,after,7197,wonky,non-habitual,script,66.62,exclamation,False
2421,2,9_doctor,after,5391,ordinary,non-habitual,script,59.08,exclamation,False
2421,3,3_feed_dog,before,8122,ordinary,,script,39.5,exclamation,False
2421,4,22_dishes,before,6307,wonky,,script,63.91,exclamation,False
2421,5,20_drive,after,5990,ordinary,habitual,script,65.33,exclamation,False
2421,6,21_pizza,after,5416,wonky,habitual,script,59.78,exclamation,False
2421,1,7_train,after,7197,wonky,non-habitual,interaction,35.14,exclamation,False
2421,2,9_doctor,after,5391,ordinary,non-habitual,interaction,58.02,exclamation,False
2421,3,3_feed_dog,before,8122,ordinary,,interaction,36.55,exclamation,False
2421,4,22_dishes,before,6307,wonky,,interaction,40.56,exclamation,False
2421,5,20_drive,after,5990,ordinary,habitual,interaction,64.5,exclamation,False
2421,6,21_pizza,after,5416,wonky,habitual,interaction,57.9,exclamation,False
2422,1,6_swimming,before,42389,ordinary,,habitual,99.74,ohyeah,True
2422,2,2_restaurant,before,30823,wonky,,habitual,49.09,ohyeah,True
2422,3,24_laundry,after,34967,wonky,non-habitual,habitual,49.22,ohyeah,True
2422,4,21_pizza,after,37550,wonky,habitual,habitual,100,ohyeah,True
2422,5,3_feed_dog,after,38259,ordinary,non-habitual,habitual,100,ohyeah,True
2422,6,17_airplane,after,33905,ordinary,habitual,habitual,100,ohyeah,True
2422,1,6_swimming,before,42389,ordinary,,non-habitual,0,ohyeah,True
2422,2,2_restaurant,before,30823,wonky,,non-habitual,77.06,ohyeah,True
2422,3,24_laundry,after,34967,wonky,non-habitual,non-habitual,50.51,ohyeah,True
2422,4,21_pizza,after,37550,wonky,habitual,non-habitual,37.36,ohyeah,True
2422,5,3_feed_dog,after,38259,ordinary,non-habitual,non-habitual,49.74,ohyeah,True
2422,6,17_airplane,after,33905,ordinary,habitual,non-habitual,100,ohyeah,True
2422,1,6_swimming,before,42389,ordinary,,script,73.7,ohyeah,True
2422,2,2_restaurant,before,30823,wonky,,script,74.48,ohyeah,True
2422,3,24_laundry,after,34967,wonky,non-habitual,script,0,ohyeah,True
2422,4,21_pizza,after,37550,wonky,habitual,script,100,ohyeah,True
2422,5,3_feed_dog,after,38259,ordinary,non-habitual,script,100,ohyeah,True
2422,6,17_airplane,after,33905,ordinary,habitual,script,99.35,ohyeah,True
2422,1,6_swimming,before,42389,ordinary,,interaction,48.96,ohyeah,True
2422,2,2_restaurant,before,30823,wonky,,interaction,48.83,ohyeah,True
2422,3,24_laundry,after,34967,wonky,non-habitual,interaction,99.35,ohyeah,True
2422,4,21_pizza,after,37550,wonky,habitual,interaction,48.7,ohyeah,True
2422,5,3_feed_dog,after,38259,ordinary,non-habitual,interaction,100,ohyeah,True
2422,6,17_airplane,after,33905,ordinary,habitual,interaction,49.74,ohyeah,True
2423,1,23_library,after,62920,ordinary,non-habitual,habitual,86.05,ohyeah,True
2423,2,5_fueling,after,66152,wonky,habitual,habitual,48.45,ohyeah,True
2423,3,18_hair,after,66665,ordinary,habitual,habitual,97.1,ohyeah,True
2423,4,3_feed_dog,before,72143,wonky,,habitual,31.41,ohyeah,True
2423,5,8_work,after,63208,wonky,non-habitual,habitual,48.21,ohyeah,True
2423,6,16_baking,before,50851,ordinary,,habitual,97.21,ohyeah,True
2423,1,23_library,after,62920,ordinary,non-habitual,non-habitual,12.25,ohyeah,True
2423,2,5_fueling,after,66152,wonky,habitual,non-habitual,16.6,ohyeah,True
2423,3,18_hair,after,66665,ordinary,habitual,non-habitual,49.86,ohyeah,True
2423,4,3_feed_dog,before,72143,wonky,,non-habitual,2.5,ohyeah,True
2423,5,8_work,after,63208,wonky,non-habitual,non-habitual,51.27,ohyeah,True
2423,6,16_baking,before,50851,ordinary,,non-habitual,47.62,ohyeah,True
2423,1,23_library,after,62920,ordinary,non-habitual,script,83.11,ohyeah,True
2423,2,5_fueling,after,66152,wonky,habitual,script,77.71,ohyeah,True
2423,3,18_hair,after,66665,ordinary,habitual,script,73.59,ohyeah,True
2423,4,3_feed_dog,before,72143,wonky,,script,95.69,ohyeah,True
2423,5,8_work,after,63208,wonky,non-habitual,script,51.38,ohyeah,True
2423,6,16_baking,before,50851,ordinary,,script,77.35,ohyeah,True
2423,1,23_library,after,62920,ordinary,non-habitual,interaction,76.88,ohyeah,True
2423,2,5_fueling,after,66152,wonky,habitual,interaction,51.15,ohyeah,True
2423,3,18_hair,after,66665,ordinary,habitual,interaction,50.09,ohyeah,True
2423,4,3_feed_dog,before,72143,wonky,,interaction,92.87,ohyeah,True
2423,5,8_work,after,63208,wonky,non-habitual,interaction,61.26,ohyeah,True
2423,6,16_baking,before,50851,ordinary,,interaction,89.22,ohyeah,True
2424,1,6_swimming,after,293901,ordinary,non-habitual,habitual,100,period,True
2424,2,8_work,after,57023,wonky,habitual,habitual,100,period,True
2424,3,19_exhibit,after,46884,ordinary,habitual,habitual,54.75,period,True
2424,4,24_laundry,after,160836,wonky,non-habitual,habitual,97.92,period,True
2424,5,4_subway,before,52422,ordinary,,habitual,100,period,True
2424,6,12_letter,before,72178,wonky,,habitual,7.3,period,True
2424,1,6_swimming,after,293901,ordinary,non-habitual,non-habitual,48.13,period,True
2424,2,8_work,after,57023,wonky,habitual,non-habitual,96.13,period,True
2424,3,19_exhibit,after,46884,ordinary,habitual,non-habitual,0,period,True
2424,4,24_laundry,after,160836,wonky,non-habitual,non-habitual,51.85,period,True
2424,5,4_subway,before,52422,ordinary,,non-habitual,2.19,period,True
2424,6,12_letter,before,72178,wonky,,non-habitual,18.88,period,True
2424,1,6_swimming,after,293901,ordinary,non-habitual,script,63.02,period,True
2424,2,8_work,after,57023,wonky,habitual,script,74.47,period,True
2424,3,19_exhibit,after,46884,ordinary,habitual,script,50.47,period,True
2424,4,24_laundry,after,160836,wonky,non-habitual,script,47.57,period,True
2424,5,4_subway,before,52422,ordinary,,script,99.02,period,True
2424,6,12_letter,before,72178,wonky,,script,62.88,period,True
2424,1,6_swimming,after,293901,ordinary,non-habitual,interaction,0.54,period,True
2424,2,8_work,after,57023,wonky,habitual,interaction,78.61,period,True
2424,3,19_exhibit,after,46884,ordinary,habitual,interaction,47.71,period,True
2424,4,24_laundry,after,160836,wonky,non-habitual,interaction,84.54,period,True
2424,5,4_subway,before,52422,ordinary,,interaction,51.44,period,True
2424,6,12_letter,before,72178,wonky,,interaction,51.02,period,True
2425,1,20_drive,before,29341,ordinary,,habitual,60.54,ohyeah,True
2425,2,5_fueling,after,25069,ordinary,habitual,habitual,97.86,ohyeah,True
2425,3,15_pasta,after,28846,wonky,non-habitual,habitual,79.81,ohyeah,True
2425,4,6_swimming,after,18197,wonky,habitual,habitual,93.63,ohyeah,True
2425,5,21_pizza,before,16798,wonky,,habitual,98.75,ohyeah,True
2425,6,17_airplane,after,18342,ordinary,non-habitual,habitual,44.69,ohyeah,True
2425,1,20_drive,before,29341,ordinary,,non-habitual,38.83,ohyeah,True
2425,2,5_fueling,after,25069,ordinary,habitual,non-habitual,24.44,ohyeah,True
2425,3,15_pasta,after,28846,wonky,non-habitual,non-habitual,32.57,ohyeah,True
2425,4,6_swimming,after,18197,wonky,habitual,non-habitual,86.96,ohyeah,True
2425,5,21_pizza,before,16798,wonky,,non-habitual,76.72,ohyeah,True
2425,6,17_airplane,after,18342,ordinary,non-habitual,non-habitual,94.36,ohyeah,True
2425,1,20_drive,before,29341,ordinary,,script,90.7,ohyeah,True
2425,2,5_fueling,after,25069,ordinary,habitual,script,69.57,ohyeah,True
2425,3,15_pasta,after,28846,wonky,non-habitual,script,37.94,ohyeah,True
2425,4,6_swimming,after,18197,wonky,habitual,script,62.41,ohyeah,True
2425,5,21_pizza,before,16798,wonky,,script,89.97,ohyeah,True
2425,6,17_airplane,after,18342,ordinary,non-habitual,script,92.98,ohyeah,True
2425,1,20_drive,before,29341,ordinary,,interaction,80.3,ohyeah,True
2425,2,5_fueling,after,25069,ordinary,habitual,interaction,58.51,ohyeah,True
2425,3,15_pasta,after,28846,wonky,non-habitual,interaction,89.97,ohyeah,True
2425,4,6_swimming,after,18197,wonky,habitual,interaction,52.98,ohyeah,True
2425,5,21_pizza,before,16798,wonky,,interaction,49.89,ohyeah,True
2425,6,17_airplane,after,18342,ordinary,non-habitual,interaction,62.33,ohyeah,True
2426,1,5_fueling,after,49474,wonky,habitual,habitual,14.02,exclamation,True
2426,2,1_grocery,after,44208,ordinary,non-habitual,habitual,98.61,exclamation,True
2426,3,10_shampoo,before,39499,wonky,,habitual,0.97,exclamation,True
2426,4,23_library,after,32227,wonky,non-habitual,habitual,14.64,exclamation,True
2426,5,14_clothes,after,29397,ordinary,habitual,habitual,22.59,exclamation,True
2426,6,7_train,before,39473,ordinary,,habitual,86.94,exclamation,True
2426,1,5_fueling,after,49474,wonky,habitual,non-habitual,11.41,exclamation,True
2426,2,1_grocery,after,44208,ordinary,non-habitual,non-habitual,31.53,exclamation,True
2426,3,10_shampoo,before,39499,wonky,,non-habitual,16.01,exclamation,True
2426,4,23_library,after,32227,wonky,non-habitual,non-habitual,18.37,exclamation,True
2426,5,14_clothes,after,29397,ordinary,habitual,non-habitual,75.63,exclamation,True
2426,6,7_train,before,39473,ordinary,,non-habitual,35.14,exclamation,True
2426,1,5_fueling,after,49474,wonky,habitual,script,71.16,exclamation,True
2426,2,1_grocery,after,44208,ordinary,non-habitual,script,80.48,exclamation,True
2426,3,10_shampoo,before,39499,wonky,,script,88.3,exclamation,True
2426,4,23_library,after,32227,wonky,non-habitual,script,91.28,exclamation,True
2426,5,14_clothes,after,29397,ordinary,habitual,script,77.87,exclamation,True
2426,6,7_train,before,39473,ordinary,,script,87.43,exclamation,True
2426,1,5_fueling,after,49474,wonky,habitual,interaction,50.04,exclamation,True
2426,2,1_grocery,after,44208,ordinary,non-habitual,interaction,47.56,exclamation,True
2426,3,10_shampoo,before,39499,wonky,,interaction,88.68,exclamation,True
2426,4,23_library,after,32227,wonky,non-habitual,interaction,47.56,exclamation,True
2426,5,14_clothes,after,29397,ordinary,habitual,interaction,48.3,exclamation,True
2426,6,7_train,before,39473,ordinary,,interaction,48.92,exclamation,True
2427,1,1_grocery,after,25241,wonky,habitual,habitual,14.76,exclamation,True
2427,2,21_pizza,before,20357,wonky,,habitual,99.07,exclamation,True
2427,3,8_work,after,28042,wonky,non-habitual,habitual,78.71,exclamation,True
2427,4,7_train,before,48564,ordinary,,habitual,50.28,exclamation,True
2427,5,9_doctor,after,28811,ordinary,non-habitual,habitual,83.82,exclamation,True
2427,6,19_exhibit,after,33093,ordinary,habitual,habitual,100,exclamation,True
2427,1,1_grocery,after,25241,wonky,habitual,non-habitual,33.78,exclamation,True
2427,2,21_pizza,before,20357,wonky,,non-habitual,21.94,exclamation,True
2427,3,8_work,after,28042,wonky,non-habitual,non-habitual,37.36,exclamation,True
2427,4,7_train,before,48564,ordinary,,non-habitual,11.62,exclamation,True
2427,5,9_doctor,after,28811,ordinary,non-habitual,non-habitual,90.46,exclamation,True
2427,6,19_exhibit,after,33093,ordinary,habitual,non-habitual,49.02,exclamation,True
2427,1,1_grocery,after,25241,wonky,habitual,script,49.74,exclamation,True
2427,2,21_pizza,before,20357,wonky,,script,78.44,exclamation,True
2427,3,8_work,after,28042,wonky,non-habitual,script,95.48,exclamation,True
2427,4,7_train,before,48564,ordinary,,script,89.11,exclamation,True
2427,5,9_doctor,after,28811,ordinary,non-habitual,script,11.09,exclamation,True
2427,6,19_exhibit,after,33093,ordinary,habitual,script,88.4,exclamation,True
2427,1,1_grocery,after,25241,wonky,habitual,interaction,49.38,exclamation,True
2427,2,21_pizza,before,20357,wonky,,interaction,50.1,exclamation,True
2427,3,8_work,after,28042,wonky,non-habitual,interaction,50.01,exclamation,True
2427,4,7_train,before,48564,ordinary,,interaction,16.02,exclamation,True
2427,5,9_doctor,after,28811,ordinary,non-habitual,interaction,11.36,exclamation,True
2427,6,19_exhibit,after,33093,ordinary,habitual,interaction,49.2,exclamation,True
2428,1,8_work,after,53996,ordinary,habitual,habitual,98.86,ohyeah,True
2428,2,12_letter,after,21855,ordinary,non-habitual,habitual,99.58,ohyeah,True
2428,3,2_restaurant,before,23580,wonky,,habitual,100,ohyeah,True
2428,4,11_skydiving,after,25590,wonky,habitual,habitual,100,ohyeah,True
2428,5,16_baking,after,20532,wonky,non-habitual,habitual,99.37,ohyeah,True
2428,6,13_bus,before,20114,ordinary,,habitual,98.65,ohyeah,True
2428,1,8_work,after,53996,ordinary,habitual,non-habitual,84.19,ohyeah,True
2428,2,12_letter,after,21855,ordinary,non-habitual,non-habitual,25.11,ohyeah,True
2428,3,2_restaurant,before,23580,wonky,,non-habitual,22.24,ohyeah,True
2428,4,11_skydiving,after,25590,wonky,habitual,non-habitual,9.52,ohyeah,True
2428,5,16_baking,after,20532,wonky,non-habitual,non-habitual,49.22,ohyeah,True
2428,6,13_bus,before,20114,ordinary,,non-habitual,32.09,ohyeah,True
2428,1,8_work,after,53996,ordinary,habitual,script,50.55,ohyeah,True
2428,2,12_letter,after,21855,ordinary,non-habitual,script,52.5,ohyeah,True
2428,3,2_restaurant,before,23580,wonky,,script,66.86,ohyeah,True
2428,4,11_skydiving,after,25590,wonky,habitual,script,31.17,ohyeah,True
2428,5,16_baking,after,20532,wonky,non-habitual,script,51.27,ohyeah,True
2428,6,13_bus,before,20114,ordinary,,script,54.86,ohyeah,True
2428,1,8_work,after,53996,ordinary,habitual,interaction,71.37,ohyeah,True
2428,2,12_letter,after,21855,ordinary,non-habitual,interaction,75.37,ohyeah,True
2428,3,2_restaurant,before,23580,wonky,,interaction,70.76,ohyeah,True
2428,4,11_skydiving,after,25590,wonky,habitual,interaction,20.19,ohyeah,True
2428,5,16_baking,after,20532,wonky,non-habitual,interaction,63.68,ohyeah,True
2428,6,13_bus,before,20114,ordinary,,interaction,48.5,ohyeah,True
2429,1,4_subway,before,31008,wonky,,habitual,13.11,exclamation,True
2429,2,17_airplane,after,45905,wonky,non-habitual,habitual,85.18,exclamation,True
2429,3,6_swimming,after,48940,wonky,habitual,habitual,52.17,exclamation,True
2429,4,20_drive,after,31519,ordinary,non-habitual,habitual,86.59,exclamation,True
2429,5,19_exhibit,after,33651,ordinary,habitual,habitual,81.23,exclamation,True
2429,6,11_skydiving,before,39726,ordinary,,habitual,94.21,exclamation,True
2429,1,4_subway,before,31008,wonky,,non-habitual,4.64,exclamation,True
2429,2,17_airplane,after,45905,wonky,non-habitual,non-habitual,57.82,exclamation,True
2429,3,6_swimming,after,48940,wonky,habitual,non-habitual,13.53,exclamation,True
2429,4,20_drive,after,31519,ordinary,non-habitual,non-habitual,6.34,exclamation,True
2429,5,19_exhibit,after,33651,ordinary,habitual,non-habitual,33.56,exclamation,True
2429,6,11_skydiving,before,39726,ordinary,,non-habitual,63.18,exclamation,True
2429,1,4_subway,before,31008,wonky,,script,92.09,exclamation,True
2429,2,17_airplane,after,45905,wonky,non-habitual,script,89.55,exclamation,True
2429,3,6_swimming,after,48940,wonky,habitual,script,91.38,exclamation,True
2429,4,20_drive,after,31519,ordinary,non-habitual,script,87.01,exclamation,True
2429,5,19_exhibit,after,33651,ordinary,habitual,script,88.85,exclamation,True
2429,6,11_skydiving,before,39726,ordinary,,script,58.66,exclamation,True
2429,1,4_subway,before,31008,wonky,,interaction,41.88,exclamation,True
2429,2,17_airplane,after,45905,wonky,non-habitual,interaction,35.81,exclamation,True
2429,3,6_swimming,after,48940,wonky,habitual,interaction,40.04,exclamation,True
2429,4,20_drive,after,31519,ordinary,non-habitual,interaction,46.81,exclamation,True
2429,5,19_exhibit,after,33651,ordinary,habitual,interaction,62.19,exclamation,True
2429,6,11_skydiving,before,39726,ordinary,,interaction,41.74,exclamation,True
2430,1,8_work,before,80530,ordinary,,habitual,100,exclamation,True
2430,2,20_drive,after,103341,wonky,habitual,habitual,100,exclamation,True
2430,3,6_swimming,after,152560,ordinary,habitual,habitual,100,exclamation,True
2430,4,7_train,after,89878,wonky,non-habitual,habitual,100,exclamation,True
2430,5,23_library,before,82306,wonky,,habitual,0,exclamation,True
2430,6,18_hair,after,67910,ordinary,non-habitual,habitual,100,exclamation,True
2430,1,8_work,before,80530,ordinary,,non-habitual,100,exclamation,True
2430,2,20_drive,after,103341,wonky,habitual,non-habitual,0,exclamation,True
2430,3,6_swimming,after,152560,ordinary,habitual,non-habitual,0.94,exclamation,True
2430,4,7_train,after,89878,wonky,non-habitual,non-habitual,100,exclamation,True
2430,5,23_library,before,82306,wonky,,non-habitual,0,exclamation,True
2430,6,18_hair,after,67910,ordinary,non-habitual,non-habitual,50.36,exclamation,True
2430,1,8_work,before,80530,ordinary,,script,100,exclamation,True
2430,2,20_drive,after,103341,wonky,habitual,script,100,exclamation,True
2430,3,6_swimming,after,152560,ordinary,habitual,script,100,exclamation,True
2430,4,7_train,after,89878,wonky,non-habitual,script,80.18,exclamation,True
2430,5,23_library,before,82306,wonky,,script,100,exclamation,True
2430,6,18_hair,after,67910,ordinary,non-habitual,script,100,exclamation,True
2430,1,8_work,before,80530,ordinary,,interaction,100,exclamation,True
2430,2,20_drive,after,103341,wonky,habitual,interaction,50.86,exclamation,True
2430,3,6_swimming,after,152560,ordinary,habitual,interaction,100,exclamation,True
2430,4,7_train,after,89878,wonky,non-habitual,interaction,49.05,exclamation,True
2430,5,23_library,before,82306,wonky,,interaction,47.56,exclamation,True
2430,6,18_hair,after,67910,ordinary,non-habitual,interaction,100,exclamation,True
2431,1,14_clothes,before,39575,ordinary,,habitual,82,period,True
2431,2,21_pizza,after,31908,ordinary,habitual,habitual,76.96,period,True
2431,3,18_hair,after,51269,wonky,habitual,habitual,6.07,period,True
2431,4,24_laundry,after,32706,ordinary,non-habitual,habitual,79.97,period,True
2431,5,19_exhibit,after,43210,wonky,non-habitual,habitual,6.96,period,True
2431,6,3_feed_dog,before,59629,wonky,,habitual,48.35,period,True
2431,1,14_clothes,before,39575,ordinary,,non-habitual,84.04,period,True
2431,2,21_pizza,after,31908,ordinary,habitual,non-habitual,86.23,period,True
2431,3,18_hair,after,51269,wonky,habitual,non-habitual,9.16,period,True
2431,4,24_laundry,after,32706,ordinary,non-habitual,non-habitual,19.48,period,True
2431,5,19_exhibit,after,43210,wonky,non-habitual,non-habitual,24.28,period,True
2431,6,3_feed_dog,before,59629,wonky,,non-habitual,27.21,period,True
2431,1,14_clothes,before,39575,ordinary,,script,75.74,period,True
2431,2,21_pizza,after,31908,ordinary,habitual,script,95.34,period,True
2431,3,18_hair,after,51269,wonky,habitual,script,93.71,period,True
2431,4,24_laundry,after,32706,ordinary,non-habitual,script,50.7,period,True
2431,5,19_exhibit,after,43210,wonky,non-habitual,script,82,period,True
2431,6,3_feed_dog,before,59629,wonky,,script,77.61,period,True
2431,1,14_clothes,before,39575,ordinary,,interaction,16.72,period,True
2431,2,21_pizza,after,31908,ordinary,habitual,interaction,68.26,period,True
2431,3,18_hair,after,51269,wonky,habitual,interaction,74.36,period,True
2431,4,24_laundry,after,32706,ordinary,non-habitual,interaction,86.31,period,True
2431,5,19_exhibit,after,43210,wonky,non-habitual,interaction,80.7,period,True
2431,6,3_feed_dog,before,59629,wonky,,interaction,72.17,period,True
2432,1,1_grocery,before,4746,ordinary,,habitual,66.39,ohyeah,True
2432,2,7_train,after,5422,wonky,non-habitual,habitual,90.38,ohyeah,True
2432,3,5_fueling,after,6546,wonky,habitual,habitual,91,ohyeah,True
2432,4,20_drive,after,9269,ordinary,habitual,habitual,38.37,ohyeah,True
2432,5,4_subway,after,4263,ordinary,non-habitual,habitual,85.43,ohyeah,True
2432,6,2_restaurant,before,3982,wonky,,habitual,76.92,ohyeah,True
2432,1,1_grocery,before,4746,ordinary,,non-habitual,77.23,ohyeah,True
2432,2,7_train,after,5422,wonky,non-habitual,non-habitual,50.75,ohyeah,True
2432,3,5_fueling,after,6546,wonky,habitual,non-habitual,82.33,ohyeah,True
2432,4,20_drive,after,9269,ordinary,habitual,non-habitual,53.23,ohyeah,True
2432,5,4_subway,after,4263,ordinary,non-habitual,non-habitual,71.65,ohyeah,True
2432,6,2_restaurant,before,3982,wonky,,non-habitual,96.73,ohyeah,True
2432,1,1_grocery,before,4746,ordinary,,script,87.44,ohyeah,True
2432,2,7_train,after,5422,wonky,non-habitual,script,70.72,ohyeah,True
2432,3,5_fueling,after,6546,wonky,habitual,script,60.97,ohyeah,True
2432,4,20_drive,after,9269,ordinary,habitual,script,71.03,ohyeah,True
2432,5,4_subway,after,4263,ordinary,non-habitual,script,42.4,ohyeah,True
2432,6,2_restaurant,before,3982,wonky,,script,80.17,ohyeah,True
2432,1,1_grocery,before,4746,ordinary,,interaction,72.74,ohyeah,True
2432,2,7_train,after,5422,wonky,non-habitual,interaction,76.45,ohyeah,True
2432,3,5_fueling,after,6546,wonky,habitual,interaction,66.7,ohyeah,True
2432,4,20_drive,after,9269,ordinary,habitual,interaction,84.5,ohyeah,True
2432,5,4_subway,after,4263,ordinary,non-habitual,interaction,58.18,ohyeah,True
2432,6,2_restaurant,before,3982,wonky,,interaction,64.07,ohyeah,True
2433,1,16_baking,before,24636,ordinary,,habitual,95.84,ohyeah,True
2433,2,17_airplane,after,24017,wonky,non-habitual,habitual,71.41,ohyeah,True
2433,3,11_skydiving,after,20542,wonky,habitual,habitual,95.84,ohyeah,True
2433,4,23_library,after,25649,ordinary,non-habitual,habitual,93.86,ohyeah,True
2433,5,7_train,after,28023,ordinary,habitual,habitual,13.27,ohyeah,True
2433,6,9_doctor,before,34515,wonky,,habitual,28.2,ohyeah,True
2433,1,16_baking,before,24636,ordinary,,non-habitual,51.06,ohyeah,True
2433,2,17_airplane,after,24017,wonky,non-habitual,non-habitual,60.56,ohyeah,True
2433,3,11_skydiving,after,20542,wonky,habitual,non-habitual,35.82,ohyeah,True
2433,4,23_library,after,25649,ordinary,non-habitual,non-habitual,7.32,ohyeah,True
2433,5,7_train,after,28023,ordinary,habitual,non-habitual,29.03,ohyeah,True
2433,6,9_doctor,before,34515,wonky,,non-habitual,76.22,ohyeah,True
2433,1,16_baking,before,24636,ordinary,,script,59.62,ohyeah,True
2433,2,17_airplane,after,24017,wonky,non-habitual,script,72.35,ohyeah,True
2433,3,11_skydiving,after,20542,wonky,habitual,script,18.39,ohyeah,True
2433,4,23_library,after,25649,ordinary,non-habitual,script,84.04,ohyeah,True
2433,5,7_train,after,28023,ordinary,habitual,script,72.46,ohyeah,True
2433,6,9_doctor,before,34515,wonky,,script,11.81,ohyeah,True
2433,1,16_baking,before,24636,ordinary,,interaction,79.66,ohyeah,True
2433,2,17_airplane,after,24017,wonky,non-habitual,interaction,50.12,ohyeah,True
2433,3,11_skydiving,after,20542,wonky,habitual,interaction,31.43,ohyeah,True
2433,4,23_library,after,25649,ordinary,non-habitual,interaction,63.58,ohyeah,True
2433,5,7_train,after,28023,ordinary,habitual,interaction,32.27,ohyeah,True
2433,6,9_doctor,before,34515,wonky,,interaction,38.22,ohyeah,True
2434,1,9_doctor,after,46974,ordinary,habitual,habitual,8.43,period,True
2434,2,15_pasta,before,24194,ordinary,,habitual,93.22,period,True
2434,3,13_bus,after,27496,wonky,habitual,habitual,2.82,period,True
2434,4,18_hair,after,31683,ordinary,non-habitual,habitual,100,period,True
2434,5,5_fueling,before,24863,wonky,,habitual,100,period,True
2434,6,21_pizza,after,72008,wonky,non-habitual,habitual,100,period,True
2434,1,9_doctor,after,46974,ordinary,habitual,non-habitual,3.63,period,True
2434,2,15_pasta,before,24194,ordinary,,non-habitual,13.71,period,True
2434,3,13_bus,after,27496,wonky,habitual,non-habitual,39.57,period,True
2434,4,18_hair,after,31683,ordinary,non-habitual,non-habitual,22.49,period,True
2434,5,5_fueling,before,24863,wonky,,non-habitual,0,period,True
2434,6,21_pizza,after,72008,wonky,non-habitual,non-habitual,99.32,period,True
2434,1,9_doctor,after,46974,ordinary,habitual,script,6.15,period,True
2434,2,15_pasta,before,24194,ordinary,,script,85.99,period,True
2434,3,13_bus,after,27496,wonky,habitual,script,87.37,period,True
2434,4,18_hair,after,31683,ordinary,non-habitual,script,94.61,period,True
2434,5,5_fueling,before,24863,wonky,,script,65.01,period,True
2434,6,21_pizza,after,72008,wonky,non-habitual,script,40.87,period,True
2434,1,9_doctor,after,46974,ordinary,habitual,interaction,31.52,period,True
2434,2,15_pasta,before,24194,ordinary,,interaction,82.65,period,True
2434,3,13_bus,after,27496,wonky,habitual,interaction,15.18,period,True
2434,4,18_hair,after,31683,ordinary,non-habitual,interaction,13.71,period,True
2434,5,5_fueling,before,24863,wonky,,interaction,60.87,period,True
2434,6,21_pizza,after,72008,wonky,non-habitual,interaction,66.23,period,True
2435,1,6_swimming,before,53816,ordinary,,habitual,97.86,exclamation,True
2435,2,9_doctor,before,82383,wonky,,habitual,7.7,exclamation,True
2435,3,10_shampoo,after,65445,wonky,habitual,habitual,5.09,exclamation,True
2435,4,1_grocery,after,64388,ordinary,non-habitual,habitual,98.1,exclamation,True
2435,5,19_exhibit,after,103021,wonky,non-habitual,habitual,18.43,exclamation,True
2435,6,23_library,after,40505,ordinary,habitual,habitual,99.89,exclamation,True
2435,1,6_swimming,before,53816,ordinary,,non-habitual,6.23,exclamation,True
2435,2,9_doctor,before,82383,wonky,,non-habitual,17.53,exclamation,True
2435,3,10_shampoo,after,65445,wonky,habitual,non-habitual,34.52,exclamation,True
2435,4,1_grocery,after,64388,ordinary,non-habitual,non-habitual,36.96,exclamation,True
2435,5,19_exhibit,after,103021,wonky,non-habitual,non-habitual,9.89,exclamation,True
2435,6,23_library,after,40505,ordinary,habitual,non-habitual,13.06,exclamation,True
2435,1,6_swimming,before,53816,ordinary,,script,67.04,exclamation,True
2435,2,9_doctor,before,82383,wonky,,script,27.78,exclamation,True
2435,3,10_shampoo,after,65445,wonky,habitual,script,63.14,exclamation,True
2435,4,1_grocery,after,64388,ordinary,non-habitual,script,62.57,exclamation,True
2435,5,19_exhibit,after,103021,wonky,non-habitual,script,28.35,exclamation,True
2435,6,23_library,after,40505,ordinary,habitual,script,80.87,exclamation,True
2435,1,6_swimming,before,53816,ordinary,,interaction,81.19,exclamation,True
2435,2,9_doctor,before,82383,wonky,,interaction,16.96,exclamation,True
2435,3,10_shampoo,after,65445,wonky,habitual,interaction,65.74,exclamation,True
2435,4,1_grocery,after,64388,ordinary,non-habitual,interaction,58.18,exclamation,True
2435,5,19_exhibit,after,103021,wonky,non-habitual,interaction,62.17,exclamation,True
2435,6,23_library,after,40505,ordinary,habitual,interaction,61.35,exclamation,True
2436,1,12_letter,before,56450,wonky,,habitual,1.83,ohyeah,True
2436,2,5_fueling,after,27088,ordinary,non-habitual,habitual,87.14,ohyeah,True
2436,3,24_laundry,after,17525,ordinary,habitual,habitual,72.55,ohyeah,True
2436,4,9_doctor,after,16660,wonky,non-habitual,habitual,58.3,ohyeah,True
2436,5,13_bus,before,38721,ordinary,,habitual,94.7,ohyeah,True
2436,6,15_pasta,after,21093,wonky,habitual,habitual,32.42,ohyeah,True
2436,1,12_letter,before,56450,wonky,,non-habitual,50.08,ohyeah,True
2436,2,5_fueling,after,27088,ordinary,non-habitual,non-habitual,12.69,ohyeah,True
2436,3,24_laundry,after,17525,ordinary,habitual,non-habitual,33.96,ohyeah,True
2436,4,9_doctor,after,16660,wonky,non-habitual,non-habitual,71.24,ohyeah,True
2436,5,13_bus,before,38721,ordinary,,non-habitual,33.85,ohyeah,True
2436,6,15_pasta,after,21093,wonky,habitual,non-habitual,27.05,ohyeah,True
2436,1,12_letter,before,56450,wonky,,script,81,ohyeah,True
2436,2,5_fueling,after,27088,ordinary,non-habitual,script,50.62,ohyeah,True
2436,3,24_laundry,after,17525,ordinary,habitual,script,31.66,ohyeah,True
2436,4,9_doctor,after,16660,wonky,non-habitual,script,18.17,ohyeah,True
2436,5,13_bus,before,38721,ordinary,,script,97.55,ohyeah,True
2436,6,15_pasta,after,21093,wonky,habitual,script,33.63,ohyeah,True
2436,1,12_letter,before,56450,wonky,,interaction,27.93,ohyeah,True
2436,2,5_fueling,after,27088,ordinary,non-habitual,interaction,48.87,ohyeah,True
2436,3,24_laundry,after,17525,ordinary,habitual,interaction,51.94,ohyeah,True
2436,4,9_doctor,after,16660,wonky,non-habitual,interaction,67.95,ohyeah,True
2436,5,13_bus,before,38721,ordinary,,interaction,35.49,ohyeah,True
2436,6,15_pasta,after,21093,wonky,habitual,interaction,63.89,ohyeah,True
2437,1,17_airplane,before,25365,wonky,,habitual,76.06,exclamation,True
2437,2,18_hair,after,19262,wonky,non-habitual,habitual,24,exclamation,True
2437,3,10_shampoo,after,22974,ordinary,non-habitual,habitual,63.25,exclamation,True
2437,4,13_bus,after,17519,wonky,habitual,habitual,72.42,exclamation,True
2437,5,24_laundry,before,53783,ordinary,,habitual,85.46,exclamation,True
2437,6,22_dishes,after,16215,ordinary,habitual,habitual,82.17,exclamation,True
2437,1,17_airplane,before,25365,wonky,,non-habitual,35.52,exclamation,True
2437,2,18_hair,after,19262,wonky,non-habitual,non-habitual,50.91,exclamation,True
2437,3,10_shampoo,after,22974,ordinary,non-habitual,non-habitual,58.08,exclamation,True
2437,4,13_bus,after,17519,wonky,habitual,non-habitual,41.75,exclamation,True
2437,5,24_laundry,before,53783,ordinary,,non-habitual,49.27,exclamation,True
2437,6,22_dishes,after,16215,ordinary,habitual,non-habitual,66.66,exclamation,True
2437,1,17_airplane,before,25365,wonky,,script,84.64,exclamation,True
2437,2,18_hair,after,19262,wonky,non-habitual,script,92.75,exclamation,True
2437,3,10_shampoo,after,22974,ordinary,non-habitual,script,64.43,exclamation,True
2437,4,13_bus,after,17519,wonky,habitual,script,79.7,exclamation,True
2437,5,24_laundry,before,53783,ordinary,,script,54.56,exclamation,True
2437,6,22_dishes,after,16215,ordinary,habitual,script,64.43,exclamation,True
2437,1,17_airplane,before,25365,wonky,,interaction,48.45,exclamation,True
2437,2,18_hair,after,19262,wonky,non-habitual,interaction,58.08,exclamation,True
2437,3,10_shampoo,after,22974,ordinary,non-habitual,interaction,54.44,exclamation,True
2437,4,13_bus,after,17519,wonky,habitual,interaction,37.99,exclamation,True
2437,5,24_laundry,before,53783,ordinary,,interaction,82.41,exclamation,True
2437,6,22_dishes,after,16215,ordinary,habitual,interaction,64.9,exclamation,True
2438,1,3_feed_dog,after,36552,wonky,non-habitual,habitual,94.34,exclamation,True
2438,2,24_laundry,after,73248,ordinary,habitual,habitual,22.6,exclamation,True
2438,3,22_dishes,after,24444,wonky,habitual,habitual,27.77,exclamation,True
2438,4,16_baking,after,25395,ordinary,non-habitual,habitual,78.4,exclamation,True
2438,5,18_hair,before,24267,wonky,,habitual,2.62,exclamation,True
2438,6,10_shampoo,before,24196,ordinary,,habitual,95.68,exclamation,True
2438,1,3_feed_dog,after,36552,wonky,non-habitual,non-habitual,90.3,exclamation,True
2438,2,24_laundry,after,73248,ordinary,habitual,non-habitual,3.24,exclamation,True
2438,3,22_dishes,after,24444,wonky,habitual,non-habitual,57.28,exclamation,True
2438,4,16_baking,after,25395,ordinary,non-habitual,non-habitual,31.71,exclamation,True
2438,5,18_hair,before,24267,wonky,,non-habitual,98.79,exclamation,True
2438,6,10_shampoo,before,24196,ordinary,,non-habitual,92.68,exclamation,True
2438,1,3_feed_dog,after,36552,wonky,non-habitual,script,92.37,exclamation,True
2438,2,24_laundry,after,73248,ordinary,habitual,script,26.43,exclamation,True
2438,3,22_dishes,after,24444,wonky,habitual,script,66.39,exclamation,True
2438,4,16_baking,after,25395,ordinary,non-habitual,script,67.84,exclamation,True
2438,5,18_hair,before,24267,wonky,,script,98.89,exclamation,True
2438,6,10_shampoo,before,24196,ordinary,,script,66.39,exclamation,True
2438,1,3_feed_dog,after,36552,wonky,non-habitual,interaction,56.97,exclamation,True
2438,2,24_laundry,after,73248,ordinary,habitual,interaction,50.24,exclamation,True
2438,3,22_dishes,after,24444,wonky,habitual,interaction,50.13,exclamation,True
2438,4,16_baking,after,25395,ordinary,non-habitual,interaction,51.79,exclamation,True
2438,5,18_hair,before,24267,wonky,,interaction,23.01,exclamation,True
2438,6,10_shampoo,before,24196,ordinary,,interaction,69.08,exclamation,True
2439,1,18_hair,after,54570,ordinary,habitual,habitual,97.72,ohyeah,True
2439,2,15_pasta,after,46126,ordinary,non-habitual,habitual,50.08,ohyeah,True
2439,3,20_drive,before,28932,wonky,,habitual,49.99,ohyeah,True
2439,4,11_skydiving,after,57628,wonky,non-habitual,habitual,98.82,ohyeah,True
2439,5,2_restaurant,after,59809,wonky,habitual,habitual,27.11,ohyeah,True
2439,6,5_fueling,before,47979,ordinary,,habitual,97.47,ohyeah,True
2439,1,18_hair,after,54570,ordinary,habitual,non-habitual,50.68,ohyeah,True
2439,2,15_pasta,after,46126,ordinary,non-habitual,non-habitual,50.28,ohyeah,True
2439,3,20_drive,before,28932,wonky,,non-habitual,25.22,ohyeah,True
2439,4,11_skydiving,after,57628,wonky,non-habitual,non-habitual,49.18,ohyeah,True
2439,5,2_restaurant,after,59809,wonky,habitual,non-habitual,32.02,ohyeah,True
2439,6,5_fueling,before,47979,ordinary,,non-habitual,25.12,ohyeah,True
2439,1,18_hair,after,54570,ordinary,habitual,script,70.54,ohyeah,True
2439,2,15_pasta,after,46126,ordinary,non-habitual,script,77.46,ohyeah,True
2439,3,20_drive,before,28932,wonky,,script,97.66,ohyeah,True
2439,4,11_skydiving,after,57628,wonky,non-habitual,script,68.93,ohyeah,True
2439,5,2_restaurant,after,59809,wonky,habitual,script,81.87,ohyeah,True
2439,6,5_fueling,before,47979,ordinary,,script,99.35,ohyeah,True
2439,1,18_hair,after,54570,ordinary,habitual,interaction,48.07,ohyeah,True
2439,2,15_pasta,after,46126,ordinary,non-habitual,interaction,76.36,ohyeah,True
2439,3,20_drive,before,28932,wonky,,interaction,50.39,ohyeah,True
2439,4,11_skydiving,after,57628,wonky,non-habitual,interaction,48.87,ohyeah,True
2439,5,2_restaurant,after,59809,wonky,habitual,interaction,34.13,ohyeah,True
2439,6,5_fueling,before,47979,ordinary,,interaction,47.22,ohyeah,True
2440,1,22_dishes,after,23212,ordinary,habitual,habitual,90.91,ohyeah,True
2440,2,5_fueling,before,88458,wonky,,habitual,49.3,ohyeah,True
2440,3,8_work,after,26248,wonky,habitual,habitual,84.58,ohyeah,True
2440,4,20_drive,after,41094,wonky,non-habitual,habitual,89.05,ohyeah,True
2440,5,24_laundry,after,17497,ordinary,non-habitual,habitual,97.99,ohyeah,True
2440,6,12_letter,before,13805,ordinary,,habitual,95.14,ohyeah,True
2440,1,22_dishes,after,23212,ordinary,habitual,non-habitual,87.81,ohyeah,True
2440,2,5_fueling,before,88458,wonky,,non-habitual,17.25,ohyeah,True
2440,3,8_work,after,26248,wonky,habitual,non-habitual,47.19,ohyeah,True
2440,4,20_drive,after,41094,wonky,non-habitual,non-habitual,25.57,ohyeah,True
2440,5,24_laundry,after,17497,ordinary,non-habitual,non-habitual,96.88,ohyeah,True
2440,6,12_letter,before,13805,ordinary,,non-habitual,78.37,ohyeah,True
2440,1,22_dishes,after,23212,ordinary,habitual,script,96.88,ohyeah,True
2440,2,5_fueling,before,88458,wonky,,script,73.65,ohyeah,True
2440,3,8_work,after,26248,wonky,habitual,script,47.43,ohyeah,True
2440,4,20_drive,after,41094,wonky,non-habitual,script,90.79,ohyeah,True
2440,5,24_laundry,after,17497,ordinary,non-habitual,script,95.14,ohyeah,True
2440,6,12_letter,before,13805,ordinary,,script,90.66,ohyeah,True
2440,1,22_dishes,after,23212,ordinary,habitual,interaction,77.25,ohyeah,True
2440,2,5_fueling,before,88458,wonky,,interaction,51.53,ohyeah,True
2440,3,8_work,after,26248,wonky,habitual,interaction,73.15,ohyeah,True
2440,4,20_drive,after,41094,wonky,non-habitual,interaction,52.65,ohyeah,True
2440,5,24_laundry,after,17497,ordinary,non-habitual,interaction,49.42,ohyeah,True
2440,6,12_letter,before,13805,ordinary,,interaction,52.78,ohyeah,True
2441,1,23_library,after,27132,wonky,habitual,habitual,42.77,period,True
2441,2,6_swimming,before,20384,wonky,,habitual,63.32,period,True
2441,3,9_doctor,after,31426,wonky,non-habitual,habitual,8.18,period,True
2441,4,14_clothes,after,17894,ordinary,non-habitual,habitual,36.63,period,True
2441,5,10_shampoo,after,19442,ordinary,habitual,habitual,94.72,period,True
2441,6,3_feed_dog,before,22421,ordinary,,habitual,34.74,period,True
2441,1,23_library,after,27132,wonky,habitual,non-habitual,5.7,period,True
2441,2,6_swimming,before,20384,wonky,,non-habitual,38.52,period,True
2441,3,9_doctor,after,31426,wonky,non-habitual,non-habitual,67.33,period,True
2441,4,14_clothes,after,17894,ordinary,non-habitual,non-habitual,48.68,period,True
2441,5,10_shampoo,after,19442,ordinary,habitual,non-habitual,61.54,period,True
2441,6,3_feed_dog,before,22421,ordinary,,non-habitual,25.42,period,True
2441,1,23_library,after,27132,wonky,habitual,script,54.11,period,True
2441,2,6_swimming,before,20384,wonky,,script,63.08,period,True
2441,3,9_doctor,after,31426,wonky,non-habitual,script,30.85,period,True
2441,4,14_clothes,after,17894,ordinary,non-habitual,script,56.7,period,True
2441,5,10_shampoo,after,19442,ordinary,habitual,script,75.24,period,True
2441,6,3_feed_dog,before,22421,ordinary,,script,64.02,period,True
2441,1,23_library,after,27132,wonky,habitual,interaction,56.94,period,True
2441,2,6_swimming,before,20384,wonky,,interaction,46.55,period,True
2441,3,9_doctor,after,31426,wonky,non-habitual,interaction,34.15,period,True
2441,4,14_clothes,after,17894,ordinary,non-habitual,interaction,45.25,period,True
2441,5,10_shampoo,after,19442,ordinary,habitual,interaction,71.82,period,True
2441,6,3_feed_dog,before,22421,ordinary,,interaction,72.64,period,True
2399,1,21_pizza,after,27070,ordinary,non-habitual,habitual,48.04,period,True
2399,2,9_doctor,before,12123,wonky,,habitual,46.3,period,True
2399,3,1_grocery,after,7012,wonky,habitual,habitual,64.18,period,True
2399,4,10_shampoo,after,6019,ordinary,habitual,habitual,53.5,period,True
2399,5,12_letter,before,5725,ordinary,,habitual,77.42,period,True
2399,6,11_skydiving,after,5402,wonky,non-habitual,habitual,61.37,period,True
2399,1,21_pizza,after,27070,ordinary,non-habitual,non-habitual,53.75,period,True
2399,2,9_doctor,before,12123,wonky,,non-habitual,43.65,period,True
2399,3,1_grocery,after,7012,wonky,habitual,non-habitual,33.38,period,True
2399,4,10_shampoo,after,6019,ordinary,habitual,non-habitual,41.66,period,True
2399,5,12_letter,before,5725,ordinary,,non-habitual,46.05,period,True
2399,6,11_skydiving,after,5402,wonky,non-habitual,non-habitual,68.73,period,True
2399,1,21_pizza,after,27070,ordinary,non-habitual,script,52.67,period,True
2399,2,9_doctor,before,12123,wonky,,script,63.6,period,True
2399,3,1_grocery,after,7012,wonky,habitual,script,38.77,period,True
2399,4,10_shampoo,after,6019,ordinary,habitual,script,45.97,period,True
2399,5,12_letter,before,5725,ordinary,,script,40.42,period,True
2399,6,11_skydiving,after,5402,wonky,non-habitual,script,71.05,period,True
2399,1,21_pizza,after,27070,ordinary,non-habitual,interaction,90.92,period,True
2399,2,9_doctor,before,12123,wonky,,interaction,38.19,period,True
2399,3,1_grocery,after,7012,wonky,habitual,interaction,61.53,period,True
2399,4,10_shampoo,after,6019,ordinary,habitual,interaction,64.76,period,True
2399,5,12_letter,before,5725,ordinary,,interaction,43.73,period,True
2399,6,11_skydiving,after,5402,wonky,non-habitual,interaction,38.68,period,True
2398,1,24_laundry,before,44877,ordinary,,habitual,97.86,period,True
2398,2,20_drive,after,42684,ordinary,habitual,habitual,97.32,period,True
2398,3,7_train,after,55783,wonky,habitual,habitual,98.04,period,True
2398,4,10_shampoo,after,54686,ordinary,non-habitual,habitual,98.95,period,True
2398,5,8_work,after,52540,wonky,non-habitual,habitual,83.71,period,True
2398,6,12_letter,before,50055,wonky,,habitual,66.83,period,True
2398,1,24_laundry,before,44877,ordinary,,non-habitual,20.37,period,True
2398,2,20_drive,after,42684,ordinary,habitual,non-habitual,10.2,period,True
2398,3,7_train,after,55783,wonky,habitual,non-habitual,2.04,period,True
2398,4,10_shampoo,after,54686,ordinary,non-habitual,non-habitual,19.28,period,True
2398,5,8_work,after,52540,wonky,non-habitual,non-habitual,81.71,period,True
2398,6,12_letter,before,50055,wonky,,non-habitual,49.04,period,True
2398,1,24_laundry,before,44877,ordinary,,script,48.68,period,True
2398,2,20_drive,after,42684,ordinary,habitual,script,99.5,period,True
2398,3,7_train,after,55783,wonky,habitual,script,98.04,period,True
2398,4,10_shampoo,after,54686,ordinary,non-habitual,script,47.95,period,True
2398,5,8_work,after,52540,wonky,non-habitual,script,98.77,period,True
2398,6,12_letter,before,50055,wonky,,script,95.14,period,True
2398,1,24_laundry,before,44877,ordinary,,interaction,88.97,period,True
2398,2,20_drive,after,42684,ordinary,habitual,interaction,50.49,period,True
2398,3,7_train,after,55783,wonky,habitual,interaction,11.47,period,True
2398,4,10_shampoo,after,54686,ordinary,non-habitual,interaction,50.13,period,True
2398,5,8_work,after,52540,wonky,non-habitual,interaction,49.77,period,True
2398,6,12_letter,before,50055,wonky,,interaction,85.34,period,True
2397,1,5_fueling,before,55583,ordinary,,habitual,99.16,period,True
2397,2,15_pasta,before,31340,wonky,,habitual,0.31,period,True
2397,3,13_bus,after,36459,wonky,habitual,habitual,0.52,period,True
2397,4,20_drive,after,35655,ordinary,non-habitual,habitual,99.49,period,True
2397,5,10_shampoo,after,41867,ordinary,habitual,habitual,99.49,period,True
2397,6,4_subway,after,48853,wonky,non-habitual,habitual,1.43,period,True
2397,1,5_fueling,before,55583,ordinary,,non-habitual,26.49,period,True
2397,2,15_pasta,before,31340,wonky,,non-habitual,30.71,period,True
2397,3,13_bus,after,36459,wonky,habitual,non-habitual,48.91,period,True
2397,4,20_drive,after,35655,ordinary,non-habitual,non-habitual,14.37,period,True
2397,5,10_shampoo,after,41867,ordinary,habitual,non-habitual,70.25,period,True
2397,6,4_subway,after,48853,wonky,non-habitual,non-habitual,11,period,True
2397,1,5_fueling,before,55583,ordinary,,script,75.15,period,True
2397,2,15_pasta,before,31340,wonky,,script,49.35,period,True
2397,3,13_bus,after,36459,wonky,habitual,script,74.26,period,True
2397,4,20_drive,after,35655,ordinary,non-habitual,script,69.86,period,True
2397,5,10_shampoo,after,41867,ordinary,habitual,script,14.88,period,True
2397,6,4_subway,after,48853,wonky,non-habitual,script,72.84,period,True
2397,1,5_fueling,before,55583,ordinary,,interaction,48.72,period,True
2397,2,15_pasta,before,31340,wonky,,interaction,76.81,period,True
2397,3,13_bus,after,36459,wonky,habitual,interaction,49.55,period,True
2397,4,20_drive,after,35655,ordinary,non-habitual,interaction,80.34,period,True
2397,5,10_shampoo,after,41867,ordinary,habitual,interaction,80.86,period,True
2397,6,4_subway,after,48853,wonky,non-habitual,interaction,48.26,period,True
2396,1,22_dishes,after,49494,ordinary,non-habitual,habitual,98.53,period,True
2396,2,13_bus,before,44981,wonky,,habitual,98.53,period,True
2396,3,10_shampoo,before,41892,ordinary,,habitual,99.29,period,True
2396,4,14_clothes,after,50908,ordinary,habitual,habitual,50.08,period,True
2396,5,12_letter,after,63136,wonky,non-habitual,habitual,7.48,period,True
2396,6,18_hair,after,60493,wonky,habitual,habitual,9.94,period,True
2396,1,22_dishes,after,49494,ordinary,non-habitual,non-habitual,98.64,period,True
2396,2,13_bus,before,44981,wonky,,non-habitual,49.27,period,True
2396,3,10_shampoo,before,41892,ordinary,,non-habitual,49.47,period,True
2396,4,14_clothes,after,50908,ordinary,habitual,non-habitual,49.64,period,True
2396,5,12_letter,after,63136,wonky,non-habitual,non-habitual,49.11,period,True
2396,6,18_hair,after,60493,wonky,habitual,non-habitual,19.89,period,True
2396,1,22_dishes,after,49494,ordinary,non-habitual,script,50.12,period,True
2396,2,13_bus,before,44981,wonky,,script,74.82,period,True
2396,3,10_shampoo,before,41892,ordinary,,script,49.38,period,True
2396,4,14_clothes,after,50908,ordinary,habitual,script,50.17,period,True
2396,5,12_letter,after,63136,wonky,non-habitual,script,68.48,period,True
2396,6,18_hair,after,60493,wonky,habitual,script,91.98,period,True
2396,1,22_dishes,after,49494,ordinary,non-habitual,interaction,49.91,period,True
2396,2,13_bus,before,44981,wonky,,interaction,24.64,period,True
2396,3,10_shampoo,before,41892,ordinary,,interaction,49.11,period,True
2396,4,14_clothes,after,50908,ordinary,habitual,interaction,49.73,period,True
2396,5,12_letter,after,63136,wonky,non-habitual,interaction,49.64,period,True
2396,6,18_hair,after,60493,wonky,habitual,interaction,48.41,period,True
2395,1,3_feed_dog,before,65717,ordinary,,habitual,61.2,period,True
2395,2,1_grocery,after,52459,wonky,habitual,habitual,30.99,period,True
2395,3,2_restaurant,before,38777,wonky,,habitual,0,period,True
2395,4,8_work,after,54878,ordinary,non-habitual,habitual,100,period,True
2395,5,21_pizza,after,42182,wonky,non-habitual,habitual,8.06,period,True
2395,6,23_library,after,44555,ordinary,habitual,habitual,100,period,True
2395,1,3_feed_dog,before,65717,ordinary,,non-habitual,7.89,period,True
2395,2,1_grocery,after,52459,wonky,habitual,non-habitual,5.49,period,True
2395,3,2_restaurant,before,38777,wonky,,non-habitual,10.87,period,True
2395,4,8_work,after,54878,ordinary,non-habitual,non-habitual,50.03,period,True
2395,5,21_pizza,after,42182,wonky,non-habitual,non-habitual,50.52,period,True
2395,6,23_library,after,44555,ordinary,habitual,non-habitual,7.73,period,True
2395,1,3_feed_dog,before,65717,ordinary,,script,80.08,period,True
2395,2,1_grocery,after,52459,wonky,habitual,script,15.42,period,True
2395,3,2_restaurant,before,38777,wonky,,script,83.72,period,True
2395,4,8_work,after,54878,ordinary,non-habitual,script,24.28,period,True
2395,5,21_pizza,after,42182,wonky,non-habitual,script,93.82,period,True
2395,6,23_library,after,44555,ordinary,habitual,script,91.25,period,True
2395,1,3_feed_dog,before,65717,ordinary,,interaction,49.2,period,True
2395,2,1_grocery,after,52459,wonky,habitual,interaction,76.52,period,True
2395,3,2_restaurant,before,38777,wonky,,interaction,49.12,period,True
2395,4,8_work,after,54878,ordinary,non-habitual,interaction,87.28,period,True
2395,5,21_pizza,after,42182,wonky,non-habitual,interaction,82.81,period,True
2395,6,23_library,after,44555,ordinary,habitual,interaction,99.53,period,True
2394,1,15_pasta,after,31025,wonky,habitual,habitual,8.77,period,True
2394,2,12_letter,before,14221,ordinary,,habitual,98.06,period,True
2394,3,2_restaurant,after,40202,wonky,non-habitual,habitual,3.8,period,True
2394,4,14_clothes,before,27253,wonky,,habitual,4.4,period,True
2394,5,7_train,after,26518,ordinary,non-habitual,habitual,69.04,period,True
2394,6,10_shampoo,after,21251,ordinary,habitual,habitual,94.98,period,True
2394,1,15_pasta,after,31025,wonky,habitual,non-habitual,48.32,period,True
2394,2,12_letter,before,14221,ordinary,,non-habitual,61.42,period,True
2394,3,2_restaurant,after,40202,wonky,non-habitual,non-habitual,64.76,period,True
2394,4,14_clothes,before,27253,wonky,,non-habitual,22.04,period,True
2394,5,7_train,after,26518,ordinary,non-habitual,non-habitual,62.79,period,True
2394,6,10_shampoo,after,21251,ordinary,habitual,non-habitual,5.94,period,True
2394,1,15_pasta,after,31025,wonky,habitual,script,48.92,period,True
2394,2,12_letter,before,14221,ordinary,,script,89.16,period,True
2394,3,2_restaurant,after,40202,wonky,non-habitual,script,92.16,period,True
2394,4,14_clothes,before,27253,wonky,,script,50.12,period,True
2394,5,7_train,after,26518,ordinary,non-habitual,script,86.42,period,True
2394,6,10_shampoo,after,21251,ordinary,habitual,script,14.76,period,True
2394,1,15_pasta,after,31025,wonky,habitual,interaction,70.84,period,True
2394,2,12_letter,before,14221,ordinary,,interaction,94.73,period,True
2394,3,2_restaurant,after,40202,wonky,non-habitual,interaction,81.2,period,True
2394,4,14_clothes,before,27253,wonky,,interaction,49.69,period,True
2394,5,7_train,after,26518,ordinary,non-habitual,interaction,39.42,period,True
2394,6,10_shampoo,after,21251,ordinary,habitual,interaction,51.32,period,True
2393,1,22_dishes,after,43309,wonky,habitual,habitual,1.34,period,True
2393,2,1_grocery,after,27749,wonky,non-habitual,habitual,7.11,period,True
2393,3,23_library,after,76757,ordinary,habitual,habitual,88.63,period,True
2393,4,17_airplane,after,41890,ordinary,non-habitual,habitual,2.11,period,True
2393,5,8_work,before,35131,wonky,,habitual,70.27,period,True
2393,6,16_baking,before,21778,ordinary,,habitual,98.64,period,True
2393,1,22_dishes,after,43309,wonky,habitual,non-habitual,47.68,period,True
2393,2,1_grocery,after,27749,wonky,non-habitual,non-habitual,60.51,period,True
2393,3,23_library,after,76757,ordinary,habitual,non-habitual,46.01,period,True
2393,4,17_airplane,after,41890,ordinary,non-habitual,non-habitual,51.01,period,True
2393,5,8_work,before,35131,wonky,,non-habitual,48.7,period,True
2393,6,16_baking,before,21778,ordinary,,non-habitual,25.98,period,True
2393,1,22_dishes,after,43309,wonky,habitual,script,85.16,period,True
2393,2,1_grocery,after,27749,wonky,non-habitual,script,53.58,period,True
2393,3,23_library,after,76757,ordinary,habitual,script,98.9,period,True
2393,4,17_airplane,after,41890,ordinary,non-habitual,script,98.13,period,True
2393,5,8_work,before,35131,wonky,,script,68.09,period,True
2393,6,16_baking,before,21778,ordinary,,script,80.41,period,True
2393,1,22_dishes,after,43309,wonky,habitual,interaction,19.44,period,True
2393,2,1_grocery,after,27749,wonky,non-habitual,interaction,57.82,period,True
2393,3,23_library,after,76757,ordinary,habitual,interaction,63.21,period,True
2393,4,17_airplane,after,41890,ordinary,non-habitual,interaction,55.25,period,True
2393,5,8_work,before,35131,wonky,,interaction,56.79,period,True
2393,6,16_baking,before,21778,ordinary,,interaction,68.09,period,True
2392,1,23_library,before,30024,ordinary,,habitual,69.58,period,True
2392,2,17_airplane,after,42047,wonky,habitual,habitual,49.56,period,True
2392,3,12_letter,before,37845,wonky,,habitual,84.07,period,True
2392,4,18_hair,after,46348,wonky,non-habitual,habitual,21.73,period,True
2392,5,24_laundry,after,34662,ordinary,non-habitual,habitual,97.42,period,True
2392,6,15_pasta,after,33471,ordinary,habitual,habitual,48.05,period,True
2392,1,23_library,before,30024,ordinary,,non-habitual,16.81,period,True
2392,2,17_airplane,after,42047,wonky,habitual,non-habitual,26.64,period,True
2392,3,12_letter,before,37845,wonky,,non-habitual,17.32,period,True
2392,4,18_hair,after,46348,wonky,non-habitual,non-habitual,50.44,period,True
2392,5,24_laundry,after,34662,ordinary,non-habitual,non-habitual,35.83,period,True
2392,6,15_pasta,after,33471,ordinary,habitual,non-habitual,1.07,period,True
2392,1,23_library,before,30024,ordinary,,script,71.47,period,True
2392,2,17_airplane,after,42047,wonky,habitual,script,50.06,period,True
2392,3,12_letter,before,37845,wonky,,script,83.44,period,True
2392,4,18_hair,after,46348,wonky,non-habitual,script,83.82,period,True
2392,5,24_laundry,after,34662,ordinary,non-habitual,script,42.25,period,True
2392,6,15_pasta,after,33471,ordinary,habitual,script,74.5,period,True
2392,1,23_library,before,30024,ordinary,,interaction,46.79,period,True
2392,2,17_airplane,after,42047,wonky,habitual,interaction,73.87,period,True
2392,3,12_letter,before,37845,wonky,,interaction,82.68,period,True
2392,4,18_hair,after,46348,wonky,non-habitual,interaction,71.6,period,True
2392,5,24_laundry,after,34662,ordinary,non-habitual,interaction,92.13,period,True
2392,6,15_pasta,after,33471,ordinary,habitual,interaction,97.92,period,True
2391,1,8_work,after,22140,ordinary,habitual,habitual,76.41,period,True
2391,2,17_airplane,before,18627,ordinary,,habitual,70.64,period,True
2391,3,10_shampoo,after,9582,wonky,habitual,habitual,91.32,period,True
2391,4,21_pizza,after,7330,wonky,non-habitual,habitual,87.71,period,True
2391,5,7_train,after,9473,ordinary,non-habitual,habitual,95.64,period,True
2391,6,1_grocery,before,8012,wonky,,habitual,92.04,period,True
2391,1,8_work,after,22140,ordinary,habitual,non-habitual,46.61,period,True
2391,2,17_airplane,before,18627,ordinary,,non-habitual,54.54,period,True
2391,3,10_shampoo,after,9582,wonky,habitual,non-habitual,49.97,period,True
2391,4,21_pizza,after,7330,wonky,non-habitual,non-habitual,80.02,period,True
2391,5,7_train,after,9473,ordinary,non-habitual,non-habitual,22.81,period,True
2391,6,1_grocery,before,8012,wonky,,non-habitual,50.45,period,True
2391,1,8_work,after,22140,ordinary,habitual,script,18.96,period,True
2391,2,17_airplane,before,18627,ordinary,,script,76.17,period,True
2391,3,10_shampoo,after,9582,wonky,habitual,script,26.65,period,True
2391,4,21_pizza,after,7330,wonky,non-habitual,script,49.49,period,True
2391,5,7_train,after,9473,ordinary,non-habitual,script,37.47,period,True
2391,6,1_grocery,before,8012,wonky,,script,68.96,period,True
2391,1,8_work,after,22140,ordinary,habitual,interaction,49.01,period,True
2391,2,17_airplane,before,18627,ordinary,,interaction,35.79,period,True
2391,3,10_shampoo,after,9582,wonky,habitual,interaction,69.68,period,True
2391,4,21_pizza,after,7330,wonky,non-habitual,interaction,51.41,period,True
2391,5,7_train,after,9473,ordinary,non-habitual,interaction,53.82,period,True
2391,6,1_grocery,before,8012,wonky,,interaction,45.4,period,True
2390,1,19_exhibit,after,49301,ordinary,non-habitual,habitual,96.58,period,True
2390,2,6_swimming,before,33614,ordinary,,habitual,97.15,period,True
2390,3,1_grocery,before,21928,wonky,,habitual,89.61,period,True
2390,4,14_clothes,after,21253,wonky,habitual,habitual,18.18,period,True
2390,5,7_train,after,28081,ordinary,habitual,habitual,37.64,period,True
2390,6,10_shampoo,after,27865,wonky,non-habitual,habitual,4.74,period,True
2390,1,19_exhibit,after,49301,ordinary,non-habitual,non-habitual,49.44,period,True
2390,2,6_swimming,before,33614,ordinary,,non-habitual,22,period,True
2390,3,1_grocery,before,21928,wonky,,non-habitual,39.14,period,True
2390,4,14_clothes,after,21253,wonky,habitual,non-habitual,12.4,period,True
2390,5,7_train,after,28081,ordinary,habitual,non-habitual,27.84,period,True
2390,6,10_shampoo,after,27865,wonky,non-habitual,non-habitual,48.93,period,True
2390,1,19_exhibit,after,49301,ordinary,non-habitual,script,79.32,period,True
2390,2,6_swimming,before,33614,ordinary,,script,80.76,period,True
2390,3,1_grocery,before,21928,wonky,,script,17.86,period,True
2390,4,14_clothes,after,21253,wonky,habitual,script,8.63,period,True
2390,5,7_train,after,28081,ordinary,habitual,script,85.85,period,True
2390,6,10_shampoo,after,27865,wonky,non-habitual,script,17.11,period,True
2390,1,19_exhibit,after,49301,ordinary,non-habitual,interaction,57.22,period,True
2390,2,6_swimming,before,33614,ordinary,,interaction,80.07,period,True
2390,3,1_grocery,before,21928,wonky,,interaction,53.83,period,True
2390,4,14_clothes,after,21253,wonky,habitual,interaction,39.14,period,True
2390,5,7_train,after,28081,ordinary,habitual,interaction,21.19,period,True
2390,6,10_shampoo,after,27865,wonky,non-habitual,interaction,22.44,period,True
2389,1,16_baking,after,61313,ordinary,non-habitual,habitual,99.55,period,True
2389,2,21_pizza,after,64829,wonky,habitual,habitual,74.34,period,True
2389,3,10_shampoo,before,43858,ordinary,,habitual,99.67,period,True
2389,4,23_library,before,55463,wonky,,habitual,49.54,period,True
2389,5,15_pasta,after,42541,ordinary,habitual,habitual,5.97,period,True
2389,6,3_feed_dog,after,50688,wonky,non-habitual,habitual,11.87,period,True
2389,1,16_baking,after,61313,ordinary,non-habitual,non-habitual,49.33,period,True
2389,2,21_pizza,after,64829,wonky,habitual,non-habitual,87.14,period,True
2389,3,10_shampoo,before,43858,ordinary,,non-habitual,74.67,period,True
2389,4,23_library,before,55463,wonky,,non-habitual,19.16,period,True
2389,5,15_pasta,after,42541,ordinary,habitual,non-habitual,0.46,period,True
2389,6,3_feed_dog,after,50688,wonky,non-habitual,non-habitual,15.94,period,True
2389,1,16_baking,after,61313,ordinary,non-habitual,script,80.64,period,True
2389,2,21_pizza,after,64829,wonky,habitual,script,87.14,period,True
2389,3,10_shampoo,before,43858,ordinary,,script,53.48,period,True
2389,4,23_library,before,55463,wonky,,script,81.36,period,True
2389,5,15_pasta,after,42541,ordinary,habitual,script,12.66,period,True
2389,6,3_feed_dog,after,50688,wonky,non-habitual,script,99.54,period,True
2389,1,16_baking,after,61313,ordinary,non-habitual,interaction,93.57,period,True
2389,2,21_pizza,after,64829,wonky,habitual,interaction,91.21,period,True
2389,3,10_shampoo,before,43858,ordinary,,interaction,91.8,period,True
2389,4,23_library,before,55463,wonky,,interaction,95.01,period,True
2389,5,15_pasta,after,42541,ordinary,habitual,interaction,91.47,period,True
2389,6,3_feed_dog,after,50688,wonky,non-habitual,interaction,96.98,period,True
2388,1,1_grocery,after,38975,wonky,habitual,habitual,1.37,period,True
2388,2,7_train,after,49956,ordinary,non-habitual,habitual,41.7,period,True
2388,3,17_airplane,after,54933,ordinary,habitual,habitual,83.9,period,True
2388,4,3_feed_dog,before,33416,wonky,,habitual,5.99,period,True
2388,5,15_pasta,before,32832,ordinary,,habitual,50.16,period,True
2388,6,13_bus,after,44914,wonky,non-habitual,habitual,21.37,period,True
2388,1,1_grocery,after,38975,wonky,habitual,non-habitual,4.34,period,True
2388,2,7_train,after,49956,ordinary,non-habitual,non-habitual,54.67,period,True
2388,3,17_airplane,after,54933,ordinary,habitual,non-habitual,55.22,period,True
2388,4,3_feed_dog,before,33416,wonky,,non-habitual,9.72,period,True
2388,5,15_pasta,before,32832,ordinary,,non-habitual,50.05,period,True
2388,6,13_bus,after,44914,wonky,non-habitual,non-habitual,49.06,period,True
2388,1,1_grocery,after,38975,wonky,habitual,script,16.43,period,True
2388,2,7_train,after,49956,ordinary,non-habitual,script,78.95,period,True
2388,3,17_airplane,after,54933,ordinary,habitual,script,84.45,period,True
2388,4,3_feed_dog,before,33416,wonky,,script,95.22,period,True
2388,5,15_pasta,before,32832,ordinary,,script,50.71,period,True
2388,6,13_bus,after,44914,wonky,non-habitual,script,69.72,period,True
2388,1,1_grocery,after,38975,wonky,habitual,interaction,50.27,period,True
2388,2,7_train,after,49956,ordinary,non-habitual,interaction,8.62,period,True
2388,3,17_airplane,after,54933,ordinary,habitual,interaction,50.38,period,True
2388,4,3_feed_dog,before,33416,wonky,,interaction,65.55,period,True
2388,5,15_pasta,before,32832,ordinary,,interaction,85.55,period,True
2388,6,13_bus,after,44914,wonky,non-habitual,interaction,21.26,period,True
2387,1,20_drive,after,54747,ordinary,non-habitual,habitual,88.6,period,True
2387,2,8_work,before,88515,ordinary,,habitual,99.48,period,True
2387,3,22_dishes,after,33775,wonky,habitual,habitual,20.84,period,True
2387,4,18_hair,before,25683,wonky,,habitual,12.49,period,True
2387,5,5_fueling,after,36316,ordinary,habitual,habitual,53.29,period,True
2387,6,17_airplane,after,42666,wonky,non-habitual,habitual,92.51,period,True
2387,1,20_drive,after,54747,ordinary,non-habitual,non-habitual,6.57,period,True
2387,2,8_work,before,88515,ordinary,,non-habitual,6.57,period,True
2387,3,22_dishes,after,33775,wonky,habitual,non-habitual,88.28,period,True
2387,4,18_hair,before,25683,wonky,,non-habitual,12.91,period,True
2387,5,5_fueling,after,36316,ordinary,habitual,non-habitual,7.94,period,True
2387,6,17_airplane,after,42666,wonky,non-habitual,non-habitual,34.69,period,True
2387,1,20_drive,after,54747,ordinary,non-habitual,script,27.6,period,True
2387,2,8_work,before,88515,ordinary,,script,16.19,period,True
2387,3,22_dishes,after,33775,wonky,habitual,script,75.59,period,True
2387,4,18_hair,before,25683,wonky,,script,99.17,period,True
2387,5,5_fueling,after,36316,ordinary,habitual,script,81.51,period,True
2387,6,17_airplane,after,42666,wonky,non-habitual,script,90.18,period,True
2387,1,20_drive,after,54747,ordinary,non-habitual,interaction,64.28,period,True
2387,2,8_work,before,88515,ordinary,,interaction,48.85,period,True
2387,3,22_dishes,after,33775,wonky,habitual,interaction,80.56,period,True
2387,4,18_hair,before,25683,wonky,,interaction,49.7,period,True
2387,5,5_fueling,after,36316,ordinary,habitual,interaction,35.53,period,True
2387,6,17_airplane,after,42666,wonky,non-habitual,interaction,62.17,period,True
2386,1,20_drive,after,29562,wonky,non-habitual,habitual,50.08,period,True
2386,2,4_subway,after,23961,ordinary,non-habitual,habitual,98.56,period,True
2386,3,14_clothes,before,159342,ordinary,,habitual,78.71,period,True
2386,4,11_skydiving,before,37319,wonky,,habitual,71.49,period,True
2386,5,1_grocery,after,36449,wonky,habitual,habitual,16.36,period,True
2386,6,2_restaurant,after,65174,ordinary,habitual,habitual,50.41,period,True
2386,1,20_drive,after,29562,wonky,non-habitual,non-habitual,8.24,period,True
2386,2,4_subway,after,23961,ordinary,non-habitual,non-habitual,18.42,period,True
2386,3,14_clothes,before,159342,ordinary,,non-habitual,17.35,period,True
2386,4,11_skydiving,before,37319,wonky,,non-habitual,14.72,period,True
2386,5,1_grocery,after,36449,wonky,habitual,non-habitual,48.03,period,True
2386,6,2_restaurant,after,65174,ordinary,habitual,non-habitual,75.92,period,True
2386,1,20_drive,after,29562,wonky,non-habitual,script,100,period,True
2386,2,4_subway,after,23961,ordinary,non-habitual,script,84.54,period,True
2386,3,14_clothes,before,159342,ordinary,,script,63.04,period,True
2386,4,11_skydiving,before,37319,wonky,,script,72.15,period,True
2386,5,1_grocery,after,36449,wonky,habitual,script,33.02,period,True
2386,6,2_restaurant,after,65174,ordinary,habitual,script,79.7,period,True
2386,1,20_drive,after,29562,wonky,non-habitual,interaction,87.32,period,True
2386,2,4_subway,after,23961,ordinary,non-habitual,interaction,48.93,period,True
2386,3,14_clothes,before,159342,ordinary,,interaction,62.8,period,True
2386,4,11_skydiving,before,37319,wonky,,interaction,65.01,period,True
2386,5,1_grocery,after,36449,wonky,habitual,interaction,49.1,period,True
2386,6,2_restaurant,after,65174,ordinary,habitual,interaction,50.16,period,True
2385,1,16_baking,after,57305,ordinary,non-habitual,habitual,97.91,period,True
2385,2,15_pasta,before,77580,ordinary,,habitual,97.19,period,True
2385,3,20_drive,before,56096,wonky,,habitual,48.98,period,True
